time,seconds_elapsed,z,y,x,label
1.61691E+18,-445.6056802,0.049008653,0.365953958,-0.367032108,1
1.61691E+18,-445.5956624,0.404399131,0.715696201,-0.529327533,1
1.61691E+18,-445.585645,0.838297329,0.983552772,-0.723905664,1
1.61691E+18,-445.5756284,0.923743323,0.985136242,-0.785793235,1
1.61691E+18,-445.5656104,0.672755469,0.652671297,-0.647879386,1
1.61691E+18,-445.5555933,-0.096679336,0.229686708,-0.311083865,1
1.61691E+18,-445.5455754,-0.69945526,-0.153526136,-0.104288788,1
1.61691E+18,-445.5355581,-0.34052141,-0.085680095,0.080828856,1
1.61691E+18,-445.5255405,0.343892348,0.17765403,-0.059179773,1
1.61691E+18,-445.5155232,0.694563981,0.627667788,-0.066271484,1
1.61691E+18,-445.5055054,0.630619039,0.794057497,-0.036724634,1
1.61691E+18,-445.495488,0.260090614,0.607740268,-0.013319793,1
1.61691E+18,-445.4854712,-0.447431048,0.179741358,-0.231909937,1
1.61691E+18,-445.4754536,-0.883131911,-0.467836415,-0.918151787,1
1.61691E+18,-445.4654363,-1.016292428,-0.655553282,-1.600930637,1
1.61691E+18,-445.4554185,-0.904772081,0.16916005,-1.213754297,1
1.61691E+18,-445.4454011,-0.125858084,0.900816913,-0.930841172,1
1.61691E+18,-445.4353833,0.266247383,1.467204596,-0.885501855,1
1.61691E+18,-445.425366,0.96214232,1.620670818,-0.849539877,1
1.61691E+18,-445.4153484,1.477983472,1.410444306,-1.233108548,1
1.61691E+18,-445.4053313,1.622460916,0.925441067,-1.799203677,1
1.61691E+18,-445.3953142,1.348636961,0.397359734,-1.936741531,1
1.61691E+18,-445.3852964,1.13195002,0.36012569,-1.279893095,1
1.61691E+18,-445.3752791,0.264149534,0.321292394,-0.412303913,1
1.61691E+18,-445.3652615,-0.806877524,-0.192604639,-0.955398983,1
1.61691E+18,-445.3552441,-1.3360335,-0.092122403,-1.728455193,1
1.61691E+18,-445.3452263,-0.796482386,0.221088683,-1.888991208,1
1.61691E+18,-445.3352092,-0.392643812,0.541757099,-2.046657804,1
1.61691E+18,-445.3251912,-0.608572043,0.699707189,-1.597999114,1
1.61691E+18,-445.3151746,-1.053949666,0.459506686,-1.042928944,1
1.61691E+18,-445.3051563,-1.233356385,0.30907121,-1.001841439,1
1.61691E+18,-445.2951394,-1.070955161,0.39687312,-1.330664374,1
1.61691E+18,-445.2851221,-0.71808748,-0.103675771,-1.912457131,1
1.61691E+18,-445.2751042,0.707677145,-0.802200472,-1.850344082,1
1.61691E+18,-445.2650874,2.590243288,0.948188905,-0.393823961,1
1.61691E+18,-445.2550696,1.819261253,1.953889796,-0.400917281,1
1.61691E+18,-445.2450522,1.288691319,0.850245541,-1.329066876,1
1.61691E+18,-445.2350344,1.274779113,0.156555128,-1.821243367,1
1.61691E+18,-445.2250173,0.946289501,0.465967699,-1.453378023,1
1.61691E+18,-445.2149993,1.626568352,0.943666752,-0.939316594,1
1.61691E+18,-445.2049824,2.027469704,0.969518986,-1.004104415,1
1.61691E+18,-445.1949653,1.998883661,0.935353389,-0.997291667,1
1.61691E+18,-445.1849475,1.587452731,0.918846199,-0.937621919,1
1.61691E+18,-445.1749302,1.680899077,0.798629335,-1.02386637,1
1.61691E+18,-445.1649124,1.910551882,-0.01689619,-1.094851293,1
1.61691E+18,-445.1548955,1.905581108,-0.561205312,-0.894334273,1
1.61691E+18,-445.1448774,2.954364185,0.519623593,0.054089902,1
1.61691E+18,-445.1348606,4.187901771,1.897321229,1.317005267,1
1.61691E+18,-445.1248423,3.56560457,2.010781019,1.503233648,1
1.61691E+18,-445.1148254,1.686395921,1.529254809,0.805476717,1
1.61691E+18,-445.1048083,0.125675129,1.634992773,0.265815129,1
1.61691E+18,-445.0947905,-0.449419592,2.092431275,0.324374577,1
1.61691E+18,-445.0847732,0.467713958,2.563146606,0.407981666,1
1.61691E+18,-445.0747554,0.251878666,2.826166844,-0.042965282,1
1.61691E+18,-445.0647385,-0.62832596,2.557220139,0.00159516,1
1.61691E+18,-445.0547202,-0.80015786,2.419004385,0.367976988,1
1.61691E+18,-445.0447036,-1.021743094,2.131936917,0.94564945,1
1.61691E+18,-445.0346855,-0.886620338,1.714445373,1.190830079,1
1.61691E+18,-445.0246685,-0.339848625,1.710791965,1.409321439,1
1.61691E+18,-445.0146511,-0.346307592,1.6306394,1.486771174,1
1.61691E+18,-445.0046333,0.380422043,1.364421244,1.28850018,1
1.61691E+18,-444.9946167,0.875878579,1.556451736,0.672885817,1
1.61691E+18,-444.9845984,0.486889198,1.723316661,-0.374850381,1
1.61691E+18,-444.9745815,0.478648609,1.450861364,-1.039716558,1
1.61691E+18,-444.9645632,0.51012219,1.28876643,-0.968043653,1
1.61691E+18,-444.9545464,-0.147806881,1.180353255,-0.568307252,1
1.61691E+18,-444.9445286,-1.043896474,1.0258403,-0.190317989,1
1.61691E+18,-444.9345115,-1.354774441,0.166085173,-0.490333201,1
1.61691E+18,-444.9244934,-1.429711901,-0.54669704,-0.875697377,1
1.61691E+18,-444.9144763,-2.221753674,-0.159122202,0.040640638,1
1.61691E+18,-444.9044595,-3.141359751,0.556229569,0.943653308,1
1.61691E+18,-444.8944412,-2.82920402,0.586938595,2.163611282,1
1.61691E+18,-444.8844246,-1.895399906,-0.111882458,0.956900327,1
1.61691E+18,-444.8744065,-1.92084882,0.320820684,2.349906591,1
1.61691E+18,-444.8643894,-2.067857244,0.420876511,1.567082728,1
1.61691E+18,-444.8543713,-2.602370948,0.359552274,1.387125389,1
1.61691E+18,-444.8443542,-1.946336312,0.254202725,1.380520292,1
1.61691E+18,-444.8343364,-1.608130193,0.107355336,1.383081082,1
1.61691E+18,-444.8243193,-2.062639802,-0.091969259,1.643085771,1
1.61691E+18,-444.8143025,-2.544552381,-0.184661279,2.386623918,1
1.61691E+18,-444.8042842,-3.374312767,-0.310328809,3.275258519,1
1.61691E+18,-444.7942673,-4.313338415,-0.332465237,4.270010146,1
1.61691E+18,-444.7842495,-5.295232899,-0.256856746,5.110097865,1
1.61691E+18,-444.7742324,-5.243404512,-0.111737204,4.834205287,1
1.61691E+18,-444.7642146,-3.346643839,0.237200444,3.871118964,1
1.61691E+18,-444.7541973,-2.347859596,0.341931861,3.154385237,1
1.61691E+18,-444.7441794,-1.976726774,0.51651043,2.525245038,1
1.61691E+18,-444.7341624,-0.980379403,0.666898852,1.779676262,1
1.61691E+18,-444.7241445,0.060327335,0.481881015,1.35788059,1
1.61691E+18,-444.7141274,0.227429868,0.325536022,1.318018535,1
1.61691E+18,-444.7041104,-0.358342898,0.203275086,1.429610194,1
1.61691E+18,-444.6940925,-1.450996096,0.022421675,1.529514922,1
1.61691E+18,-444.6840754,-2.797741544,-0.156663849,1.889590927,1
1.61691E+18,-444.6740576,-3.81819869,0.118009417,1.76055772,1
1.61691E+18,-444.6640403,-3.542275132,0.322316476,0.288170461,1
1.61691E+18,-444.6540225,-2.97372881,0.18556758,-1.347700557,1
1.61691E+18,-444.6440051,-2.922801172,-0.413226289,-2.511452075,1
1.61691E+18,-444.6339873,-2.244113975,-0.492557892,-3.24183205,1
1.61691E+18,-444.6239707,-1.863994714,-0.113243225,-3.294061419,1
1.61691E+18,-444.6139534,-1.534652869,-0.70506024,-2.434160746,1
1.61691E+18,-444.6039355,-0.856647224,-0.83381843,-1.736039949,1
1.61691E+18,-444.5939182,-0.063159928,-0.980190018,-1.913718237,1
1.61691E+18,-444.5839004,2.899906618,-1.091295938,-2.916229977,1
1.61691E+18,-444.5738833,5.568078364,-0.93685561,-3.857879543,1
1.61691E+18,-444.5638655,9.726130941,-2.305716444,-4.434011206,1
1.61691E+18,-444.5538486,14.01412975,-3.69064257,-3.40191506,1
1.61691E+18,-444.5438303,10.43521912,-0.208651518,-3.375339188,1
1.61691E+18,-444.5338135,6.952719536,0.919385128,-4.413156634,1
1.61691E+18,-444.5237964,4.892224929,-0.21357027,-4.807357027,1
1.61691E+18,-444.5137786,5.091290873,-0.676634648,-3.654801441,1
1.61691E+18,-444.5037612,3.747781338,-2.13505768,-1.431211199,1
1.61691E+18,-444.4937434,0.281036956,-2.34096253,1.48216748,1
1.61691E+18,-444.4837263,-4.144582854,-1.441196879,4.704886248,1
1.61691E+18,-444.4737083,-6.266341199,-0.281494344,5.26673278,1
1.61691E+18,-444.4636917,-5.781991164,-0.690058486,4.057498445,1
1.61691E+18,-444.4536733,-3.600212942,-0.149966397,2.969054389,1
1.61691E+18,-444.4436565,-1.275157883,-0.626586423,2.429599137,1
1.61691E+18,-444.4336384,0.096074356,-0.995751452,3.064783877,1
1.61691E+18,-444.4236213,0.198743288,-1.285947573,4.488343684,1
1.61691E+18,-444.4136045,0.715155518,-1.846400605,4.60170586,1
1.61691E+18,-444.4035864,0.90566523,-1.929908324,3.044849342,1
1.61691E+18,-444.3935696,0.84086981,-1.859506462,1.578753292,1
1.61691E+18,-444.3835513,1.596385395,-1.731662465,-0.047615738,1
1.61691E+18,-444.3735344,2.876744354,-1.974812757,-1.012253966,1
1.61691E+18,-444.3635161,2.421459085,-3.013752193,-0.794077663,1
1.61691E+18,-444.3534995,1.761426319,-3.889581965,-0.495275919,1
1.61691E+18,-444.3434814,1.542225935,-5.181306075,-0.542482491,1
1.61691E+18,-444.3334644,1.521401758,-6.038754095,-0.066489365,1
1.61691E+18,-444.3234473,-0.334318464,-4.167335076,-2.492922731,1
1.61691E+18,-444.3134292,-1.812375585,-3.265672652,-2.895387095,1
1.61691E+18,-444.3034126,-2.36858908,-4.161115471,-1.962016696,1
1.61691E+18,-444.2933943,-3.595768237,-2.389837912,-1.925557728,1
1.61691E+18,-444.2833774,-3.207815214,0.328455125,-1.542160468,1
1.61691E+18,-444.2733594,-3.363313234,0.566198005,-1.418525321,1
1.61691E+18,-444.2633428,-1.277976448,2.863548772,-1.482389598,1
1.61691E+18,-444.2533247,3.508586798,7.934370858,0.830365951,1
1.61691E+18,-444.2433076,3.431031264,8.725299702,1.522457404,1
1.61691E+18,-444.2332896,2.602211958,10.24483917,0.058269818,1
1.61691E+18,-444.2232725,1.525107627,11.88913315,-0.803467423,1
1.61691E+18,-444.2132559,0.067761285,10.39765541,-1.796914981,1
1.61691E+18,-444.2032375,-0.526066194,6.241900001,-2.552044782,1
1.61691E+18,-444.1932207,0.608583149,3.533716855,-3.171072753,1
1.61691E+18,-444.1832026,0.021268413,1.026147759,-3.175128165,1
1.61691E+18,-444.1731855,-0.863855548,-0.474769137,-4.018122712,1
1.61691E+18,-444.1631675,-0.46079731,0.956808265,-3.859125744,1
1.61691E+18,-444.1531506,-1.286988606,-0.210870363,-6.268423266,1
1.61691E+18,-444.1431326,-1.37328508,2.560971893,-5.469799776,1
1.61691E+18,-444.1331155,-0.562342791,1.536353828,-2.674480491,1
1.61691E+18,-444.1230986,-4.627531206,-4.171404225,-0.618324791,1
1.61691E+18,-444.1130803,-1.619684437,-0.627717034,3.834394038,1
1.61691E+18,-444.1030637,-2.827194433,-0.788802353,4.515629166,1
1.61691E+18,-444.0930457,-4.208964433,-4.032202675,3.702763216,1
1.61691E+18,-444.0830286,-4.074429706,-11.16563183,2.308080543,1
1.61691E+18,-444.0730105,2.029111626,-8.695949689,2.477376787,1
1.61691E+18,-444.0629934,5.324668252,4.497708894,8.585773742,1
1.61691E+18,-444.0529756,5.532876118,6.898900267,8.208650156,1
1.61691E+18,-444.0429585,1.422008487,2.33021931,3.404437856,1
1.61691E+18,-444.0329417,-1.296044019,2.574945181,2.932524693,1
1.61691E+18,-444.0229236,0.603617051,0.345285848,1.678703613,1
1.61691E+18,-444.0129065,1.219013387,-1.475995805,-0.992211295,1
1.61691E+18,-444.0028887,-1.031837787,-1.486683496,-3.449331476,1
1.61691E+18,-443.9928716,-1.466930163,-1.007490112,-4.150362606,1
1.61691E+18,-443.9828538,-0.189174664,-0.48467503,-2.908243069,1
1.61691E+18,-443.9728364,-0.017402386,-0.603787439,-0.974377532,1
1.61691E+18,-443.9628186,0.413379726,-0.301480609,1.384310916,1
1.61691E+18,-443.9528015,0.244090496,-0.613027269,2.236669504,1
1.61691E+18,-443.9427847,-1.603067649,-1.594887557,2.031930775,1
1.61691E+18,-443.9327668,-2.670223418,-4.115811518,1.282684772,1
1.61691E+18,-443.9227495,1.212509996,-1.542828577,0.370724241,1
1.61691E+18,-443.9127317,1.97682965,-3.657103288,-0.557970567,1
1.61691E+18,-443.9027144,-0.954624784,-5.895302486,-1.069311486,1
1.61691E+18,-443.8926965,-2.24491477,-5.795242275,-1.69230836,1
1.61691E+18,-443.8826794,1.093883617,-0.088410105,-2.336684706,1
1.61691E+18,-443.8726616,1.141973402,2.415112346,-2.926775336,1
1.61691E+18,-443.8626448,-1.576471903,-1.470678994,-2.849011128,1
1.61691E+18,-443.8526265,-0.287993935,-2.117285876,-1.890105306,1
1.61691E+18,-443.8426096,-0.069351184,0.709896574,-0.572773,1
1.61691E+18,-443.8325925,0.038273324,7.989422883,0.162917941,1
1.61691E+18,-443.8225747,0.1710124,11.04533839,0.695244949,1
1.61691E+18,-443.8125574,0.508449873,5.910469075,0.783380913,1
1.61691E+18,-443.8025396,-0.228498959,-2.629736801,-1.032221234,1
1.61691E+18,-443.7925225,-0.750825382,-13.94804838,-3.447973047,1
1.61691E+18,-443.7825044,0.609387451,-3.573535947,-1.096601059,1
1.61691E+18,-443.7724878,0.408346992,5.986815818,1.371844234,1
1.61691E+18,-443.7624695,-0.454009842,8.231864443,2.296075632,1
1.61691E+18,-443.7524526,0.145014036,1.403722012,0.991644893,1
1.61691E+18,-443.7424353,-1.540893225,-2.642081611,-0.540437249,1
1.61691E+18,-443.7324175,-0.475943442,1.011598717,-0.196047473,1
1.61691E+18,-443.7224006,0.401155035,1.423695709,0.003707038,1
1.61691E+18,-443.7123826,-0.049390931,0.131813778,0.997414709,1
1.61691E+18,-443.7023657,-0.082964699,-0.548846765,1.419500888,1
1.61691E+18,-443.6923474,-0.560652354,-0.787912419,0.782976424,1
1.61691E+18,-443.6823306,-0.720137982,-0.203293791,0.086461893,1
1.61691E+18,-443.6723125,0.516553684,1.048388524,0.457442155,1
1.61691E+18,-443.6622957,1.042272672,0.683821637,0.454541757,1
1.61691E+18,-443.6522786,0.521688125,0.518144753,0.774818836,1
1.61691E+18,-443.6422605,-0.455522585,0.170476978,0.488395511,1
1.61691E+18,-443.6322434,-1.362029526,-0.274022985,-0.128830963,1
1.61691E+18,-443.6222256,-1.239247196,-0.689618925,-1.233648061,1
1.61691E+18,-443.6122087,-0.834484493,-0.789290721,-1.628743358,1
1.61691E+18,-443.6021904,-0.637749622,-0.523058244,-1.666727344,1
1.61691E+18,-443.5921736,-0.055693246,0.188820444,-1.235599195,1
1.61691E+18,-443.5821555,0.351199456,-0.296496975,-0.635501551,1
1.61691E+18,-443.5721387,0.447996281,-1.265400459,-0.199843358,1
1.61691E+18,-443.5621216,-0.073376202,-0.632840807,0.153041859,1
1.61691E+18,-443.5521035,-0.084983638,-0.190142048,0.597275573,1
1.61691E+18,-443.5420867,0.032006081,0.010716332,0.985679847,1
1.61691E+18,-443.5320684,-1.050447795,-1.679894576,0.296455474,1
1.61691E+18,-443.5220518,-1.888675566,-5.597556388,-0.942958311,1
1.61691E+18,-443.5120337,-1.919475193,-8.656566942,-1.272522274,1
1.61691E+18,-443.5020166,-0.489419009,-6.022920566,-0.277997442,1
1.61691E+18,-443.4919988,1.292146427,-4.797083178,0.346736631,1
1.61691E+18,-443.4819814,1.164210952,-4.281694446,0.198389067,1
1.61691E+18,-443.4719646,1.973991212,-4.613228247,-1.425934136,1
1.61691E+18,-443.4619465,-1.463452258,-3.235163824,-0.463849099,1
1.61691E+18,-443.4519297,-1.967266872,-0.235368845,1.789165975,1
1.61691E+18,-443.4419114,0.212034146,0.091872228,1.647388437,1
1.61691E+18,-443.4318945,0.245090028,-1.44012282,0.187245742,1
1.61691E+18,-443.4218767,1.456731425,-1.533597807,-0.781968708,1
1.61691E+18,-443.4118596,0.281089562,-0.416911407,0.357113649,1
1.61691E+18,-443.4018418,-0.158180976,-3.572686053,0.786935683,1
1.61691E+18,-443.3918245,-0.594751023,-2.639755799,1.731134642,1
1.61691E+18,-443.3818076,-2.156240461,-2.08421392,2.547893508,1
1.61691E+18,-443.3717893,-3.685546124,-4.511104967,2.855793628,1
1.61691E+18,-443.3617727,-5.025964707,-7.858110625,3.143610161,1
1.61691E+18,-443.3517546,-3.800854757,-10.23322472,3.747669987,1
1.61691E+18,-443.3417375,-0.406834249,-8.026054285,4.114401651,1
1.61691E+18,-443.3317197,3.127348762,-4.318441291,2.639034207,1
1.61691E+18,-443.3217024,-2.245869878,5.828757591,0.190797297,1
1.61691E+18,-443.3116846,-4.160361438,10.6840571,-1.83862734,1
1.61691E+18,-443.3016675,-1.246062722,15.75193203,-0.763792123,1
1.61691E+18,-443.2916497,0.90142277,12.79256317,-1.756419013,1
1.61691E+18,-443.2816326,1.909908908,11.30899401,-2.184169793,1
1.61691E+18,-443.271616,1.369668059,10.18490113,-1.058961941,1
1.61691E+18,-443.2615977,-0.866496418,6.534844252,0.46223728,1
1.61691E+18,-443.2515811,-4.410065682,4.036370901,2.233249174,1
1.61691E+18,-443.241563,-1.612589511,1.821333383,4.029866634,1
1.61691E+18,-443.2315459,1.447290227,3.546933772,4.597327498,1
1.61691E+18,-443.2215281,2.16471369,3.708660457,4.822635553,1
1.61691E+18,-443.2115107,0.274423675,2.915008326,3.447512736,1
1.61691E+18,-443.2014932,0.951235726,3.675409345,3.76977982,1
1.61691E+18,-443.1914758,1.280311028,3.958393927,3.530112108,1
1.61691E+18,-443.181459,1.960977416,3.530588202,1.836199529,1
1.61691E+18,-443.1714409,1.410660579,2.689460033,0.825472919,1
1.61691E+18,-443.1614238,1.713469806,-2.136629751,-1.846179363,1
1.61691E+18,-443.1514063,0.373355174,-1.61676592,-1.306553138,1
1.61691E+18,-443.1413889,-0.160021051,-0.040927054,-0.390669004,1
1.61691E+18,-443.1313711,-0.129143097,0.005445406,-0.54126084,1
1.61691E+18,-443.1213538,0.159705409,0.308800576,-0.524807718,1
1.61691E+18,-443.1113359,0.429396794,0.423273343,-0.768483203,1
1.61691E+18,-443.1013186,0.251020587,0.091523268,-1.041917283,1
1.61691E+18,-443.091302,-0.326344416,0.104476274,-0.780329124,1
1.61691E+18,-443.0812842,-0.707728583,0.077934304,-0.746990041,1
1.61691E+18,-443.0712668,-0.925833573,-0.014340076,-0.953345265,1
1.61691E+18,-443.061249,-0.885198781,0.082751933,-1.158565494,1
1.61691E+18,-443.0512317,-0.989042602,0.258771932,-1.287417499,1
1.61691E+18,-443.0412141,-0.567315903,0.114676765,-1.345931355,1
1.61691E+18,-443.0311968,-0.556892709,0.036938276,-1.209854075,1
1.61691E+18,-443.021179,-0.957007295,-0.287506444,-1.073312392,1
1.61691E+18,-443.0111621,-1.129233163,-0.421635513,-0.820423088,1
1.61691E+18,-443.0011438,-1.149476325,-0.455264811,-0.567886251,1
1.61691E+18,-442.9911272,-1.035415061,-0.536981555,-0.316697613,1
1.61691E+18,-442.9811099,-0.965618471,-0.528036617,-0.102544283,1
1.61691E+18,-442.971092,-0.929934579,-0.426519193,0.129447925,1
1.61691E+18,-442.9610747,-1.080116957,-0.342855991,0.348575683,1
1.61691E+18,-442.9510569,-1.28609195,-0.360038596,0.528835512,1
1.61691E+18,-442.94104,-1.510167247,-0.447362659,0.754421652,1
1.61691E+18,-442.931022,-1.605043333,-0.631955841,0.936151992,1
1.61691E+18,-442.9210051,-1.41987732,-0.874474558,1.15299427,1
1.61691E+18,-442.9109868,-1.08160515,-1.001671781,1.310161977,1
1.61691E+18,-442.90097,-1.045671082,-1.041239237,1.413647924,1
1.61691E+18,-442.8909519,-1.062096147,-1.047734444,1.275701781,1
1.61691E+18,-442.8809351,-0.863197377,-1.020187097,0.82033161,1
1.61691E+18,-442.870918,-0.416176078,-0.811819656,0.316656843,1
1.61691E+18,-442.8608999,0.135330846,-0.354328402,-0.029647973,1
1.61691E+18,-442.8508831,0.471608627,0.117669517,-0.359913216,1
1.61691E+18,-442.8408647,0.815849935,0.687334614,-0.455089162,1
1.61691E+18,-442.8308481,0.980021091,1.435326818,-0.357939432,1
1.61691E+18,-442.8208298,0.875866304,1.84306883,-0.117226742,1
1.61691E+18,-442.810813,0.806482387,1.914887865,-0.035992958,1
1.61691E+18,-442.8007949,0.660848758,1.677180933,-0.15724501,1
1.61691E+18,-442.7907778,0.627181466,1.24902917,-0.366907459,1
1.61691E+18,-442.78076,0.717885235,0.807628634,-0.621899726,1
1.61691E+18,-442.7707429,0.725515584,0.405209279,-0.916408889,1
1.61691E+18,-442.7607261,0.511812043,0.019858547,-1.242769818,1
1.61691E+18,-442.7507078,0.370771587,-0.428933853,-1.403519182,1
1.61691E+18,-442.7406909,0.065974986,-0.72232351,-1.391444568,1
1.61691E+18,-442.7306729,-0.342595294,-0.861125831,-1.238406654,1
1.61691E+18,-442.720656,-0.272667771,-1.078715274,-1.024763903,1
1.61691E+18,-442.7106382,0.177362646,-1.357091486,-0.86423841,1
1.61691E+18,-442.7006208,0.675427903,-1.68179398,-0.665607935,1
1.61691E+18,-442.690603,1.082830308,-1.881161537,-0.475506365,1
1.61691E+18,-442.6805857,0.961517466,-1.822345775,-0.38822658,1
1.61691E+18,-442.6705691,0.684961455,-1.84774442,-0.187978148,1
1.61691E+18,-442.6605508,0.215369428,-1.883475659,-0.116511725,1
1.61691E+18,-442.6505339,-0.128405431,-2.019391027,-0.414429381,1
1.61691E+18,-442.6405161,1.058809965,-2.057002672,-0.724693892,1
1.61691E+18,-442.6304988,1.635935315,-1.855586366,-0.970065075,1
1.61691E+18,-442.6204812,1.323760878,-1.59892222,-1.081424679,1
1.61691E+18,-442.6104639,1.183307283,-1.575956939,-1.070271563,1
1.61691E+18,-442.600446,1.257954235,-1.680460101,-1.037647204,1
1.61691E+18,-442.5904287,1.324198101,-1.70515089,-0.990372827,1
1.61691E+18,-442.5804109,1.246518649,-1.54938399,-0.925331761,1
1.61691E+18,-442.5703943,0.960137994,-1.30848849,-1.030859005,1
1.61691E+18,-442.560376,0.869311476,-1.083179852,-1.10255193,1
1.61691E+18,-442.5503591,1.10401455,-1.202184417,-0.809204651,1
1.61691E+18,-442.5403418,0.322681802,-0.763687201,-0.774459209,1
1.61691E+18,-442.530324,0.48199675,-0.474944494,-1.051470708,1
1.61691E+18,-442.5203066,0.708361035,-0.469624175,-1.279356212,1
1.61691E+18,-442.5102891,0.751238054,-0.370277081,-1.382504744,1
1.61691E+18,-442.500272,1.171330429,-0.665518503,-1.096739883,1
1.61691E+18,-442.4902539,0.553848519,-0.938872503,-0.75516721,1
1.61691E+18,-442.4802371,-0.148521167,-1.077322943,-0.551898262,1
1.61691E+18,-442.4702188,-0.031491701,-1.332611709,-0.494291584,1
1.61691E+18,-442.4602021,0.525260722,-1.498677885,-0.494061867,1
1.61691E+18,-442.4501841,1.450700328,-1.58772921,-0.263540754,1
1.61691E+18,-442.440167,2.035873375,-1.776438595,0.06811229,1
1.61691E+18,-442.4301499,1.615910764,-1.706967584,0.102204821,1
1.61691E+18,-442.4201318,1.116752451,-1.49332951,-0.074466627,1
1.61691E+18,-442.4101152,0.883697728,-1.207596505,-0.215716342,1
1.61691E+18,-442.4000969,0.926174934,-0.934186391,-0.324282223,1
1.61691E+18,-442.3900801,1.464624809,-0.74800331,-0.493170178,1
1.61691E+18,-442.3800618,1.760745936,-0.662713967,-0.633745355,1
1.61691E+18,-442.3700449,1.464224996,-0.555285858,-0.780271549,1
1.61691E+18,-442.3600269,1.187527531,-0.51154667,-0.829469002,1
1.61691E+18,-442.35001,1.020322706,-0.554559882,-0.755864253,1
1.61691E+18,-442.3399922,1.251794543,-0.613076953,-0.903199425,1
1.61691E+18,-442.3299749,1.499672741,-0.679309128,-0.981336849,1
1.61691E+18,-442.319958,1.312170978,-0.718615887,-0.811943867,1
1.61691E+18,-442.3099397,1.26523504,-0.698587245,-0.698615302,1
1.61691E+18,-442.2999231,1.468371594,-0.660836483,-0.692632136,1
1.61691E+18,-442.289905,1.633200922,-0.682795217,-0.87112817,1
1.61691E+18,-442.2798879,1.498054784,-0.641636693,-1.180207271,1
1.61691E+18,-442.2698689,1.328237147,-0.676239219,-1.504540639,1
1.61691E+18,-442.2598518,1.227524025,-1.111058039,-1.638380955,1
1.61691E+18,-442.2498337,0.517531005,-1.418783095,-1.750944088,1
1.61691E+18,-442.2398171,0.51545829,-1.84068515,-1.888328068,1
1.61691E+18,-442.2297991,0.756478877,-2.313871401,-1.812997517,1
1.61691E+18,-442.219782,0.884146641,-2.602061151,-1.498512465,1
1.61691E+18,-442.2097639,0.711335083,-2.463398531,-1.049525127,1
1.61691E+18,-442.1997468,0.397573085,-2.306169156,-0.68300243,1
1.61691E+18,-442.1897297,0.254542916,-2.172163422,-0.529327826,1
1.61691E+18,-442.1797122,0.37404491,-1.609706649,-0.630237054,1
1.61691E+18,-442.1696948,1.069296288,-1.313825175,-0.451935666,1
1.61691E+18,-442.159677,1.705319232,-1.17815063,0.024647827,1
1.61691E+18,-442.1496599,1.875461864,-1.13036655,0.587374649,1
1.61691E+18,-442.1396418,2.222581357,-1.219899522,0.990277404,1
1.61691E+18,-442.129625,1.857353376,-1.13933487,1.337082424,1
1.61691E+18,-442.1196072,1.116926639,-1.156180791,1.461161516,1
1.61691E+18,-442.1095901,0.378877737,-1.597835009,1.279623046,1
1.61691E+18,-442.099572,0.237255097,-1.98453774,1.150121637,1
1.61691E+18,-442.0895549,0.511792169,-1.518296778,0.803995831,1
1.61691E+18,-442.0795369,0.954804816,-0.750381729,0.514123535,1
1.61691E+18,-442.06952,1.059329021,-0.421005983,0.616712387,1
1.61691E+18,-442.0595029,0.781158561,-0.610778613,1.272400109,1
1.61691E+18,-442.0494849,0.014577976,-0.720960989,1.706799534,1
1.61691E+18,-442.039468,-0.704141956,-0.508217233,1.612471437,1
1.61691E+18,-442.02945,-0.934863268,-0.085348964,1.006163832,1
1.61691E+18,-442.0194331,-0.775395175,0.226117032,0.150652626,1
1.61691E+18,-442.009415,-0.516170238,0.256904385,-0.62115826,1
1.61691E+18,-441.9993979,-0.485800819,0.132362059,-1.240923897,1
1.61691E+18,-441.9893799,-0.491377158,-0.109445879,-1.737213377,1
1.61691E+18,-441.9793628,-0.484795441,0.148269823,-2.346412319,1
1.61691E+18,-441.9693447,0.106394674,0.5566589,-2.889742952,1
1.61691E+18,-441.9593281,0.626595775,0.90237671,-3.165630269,1
1.61691E+18,-441.9493098,1.084479829,1.137453878,-3.034786798,1
1.61691E+18,-441.939293,1.570104122,1.336696932,-2.639171277,1
1.61691E+18,-441.9292749,1.61894794,1.555645973,-2.192845852,1
1.61691E+18,-441.9192578,1.219817689,1.684581565,-1.712190141,1
1.61691E+18,-441.909241,0.579629441,1.684921172,-1.10674266,1
1.61691E+18,-441.8992229,0.117846627,1.483074657,-0.456222842,1
1.61691E+18,-441.8892058,-0.099006318,1.389513746,0.015174042,1
1.61691E+18,-441.8791877,-0.278587809,1.267702891,0.271792596,1
1.61691E+18,-441.8691709,-0.456640191,1.029837553,0.480132856,1
1.61691E+18,-441.8591531,-1.02332481,0.8384306,0.657291796,1
1.61691E+18,-441.849136,-1.412231773,0.774818836,0.952007879,1
1.61691E+18,-441.8391179,-1.331740771,0.645702042,1.344681209,1
1.61691E+18,-441.8291008,-1.108763206,0.46351826,1.68169125,1
1.61691E+18,-441.819083,-0.98305359,0.335519072,1.922070032,1
1.61691E+18,-441.8090662,-1.127617544,0.371900883,2.038211024,1
1.61691E+18,-441.7990481,-1.197725099,0.5833055,2.127665085,1
1.61691E+18,-441.789031,-0.577795212,0.793031954,2.266826303,1
1.61691E+18,-441.7790129,0.016045126,1.092469658,2.170769921,1
1.61691E+18,-441.7689958,0.264669174,1.472568461,1.848349547,1
1.61691E+18,-441.7589788,0.173207864,1.854541826,1.265617901,1
1.61691E+18,-441.7489612,0.000902502,2.137521732,0.572745089,1
1.61691E+18,-441.7389441,0.154194536,2.245981522,-0.070917995,1
1.61691E+18,-441.728926,0.221302326,2.369057867,-0.643769613,1
1.61691E+18,-441.7189089,0.32303836,2.344934064,-0.882433554,1
1.61691E+18,-441.7088909,0.1173416,1.82635618,-1.020439318,1
1.61691E+18,-441.698874,-0.460623123,1.017038862,-1.169220305,1
1.61691E+18,-441.688856,-0.663967767,0.149869659,-1.091171435,1
1.61691E+18,-441.6788391,-0.82314243,-0.487379028,-0.922399507,1
1.61691E+18,-441.6688208,-0.926535,-0.96229488,-0.858114959,1
1.61691E+18,-441.658804,-0.794715961,-1.551767085,-0.758355193,1
1.61691E+18,-441.6487856,-0.606145692,-2.087689487,-0.613905221,1
1.61691E+18,-441.638769,-0.68945409,-2.164474036,-0.569763881,1
1.61691E+18,-441.6287512,-0.760111096,-1.993216137,-0.469468693,1
1.61691E+18,-441.6187339,-0.687418785,-1.738563915,-0.40452305,1
1.61691E+18,-441.6087161,-0.467139373,-1.486771174,-0.342802215,1
1.61691E+18,-441.5986987,-0.288020823,-1.087879408,-0.283626095,1
1.61691E+18,-441.5886821,-0.136249714,-0.79807287,-0.303623758,1
1.61691E+18,-441.5786638,-0.076109426,-0.618728111,-0.325096462,1
1.61691E+18,-441.568647,-0.120652332,-0.719433633,-0.384724709,1
1.61691E+18,-441.5586289,-0.071340897,-0.984171196,-0.576130201,1
1.61691E+18,-441.5486118,0.169897132,-1.233273383,-0.770088885,1
1.61691E+18,-441.538594,0.521031122,-1.258686056,-0.825763426,1
1.61691E+18,-441.5285769,0.649810647,-1.106309383,-0.651405807,1
1.61691E+18,-441.5185591,0.635288785,-1.151435057,-0.325067236,1
1.61691E+18,-441.5085417,0.610116934,-1.417434603,0.039295069,1
1.61691E+18,-441.4985239,0.25618893,-1.29501643,0.008988193,1
1.61691E+18,-441.4885068,-0.111246206,-0.607348054,-0.448505838,1
1.61691E+18,-441.478489,-0.089346509,0.187441557,-0.732080057,1
1.61691E+18,-441.4684722,0.228454535,0.665784461,-0.846669436,1
1.61691E+18,-441.4584539,0.692298374,1.161264378,-1.011480351,1
1.61691E+18,-441.448437,1.173977144,1.808507804,-0.975971961,1
1.61691E+18,-441.4384187,1.251042848,2.163270506,-0.919600378,1
1.61691E+18,-441.4284021,1.340617321,1.944890789,-0.691183106,1
1.61691E+18,-441.418384,1.492207227,1.252898121,-0.36799014,1
1.61691E+18,-441.4083669,1.17283265,0.563275688,-0.059691522,1
1.61691E+18,-441.3983491,0.538818123,-0.207296597,0.083965693,1
1.61691E+18,-441.3883318,-0.293903451,-0.684730569,-0.02266206,1
1.61691E+18,-441.3783152,-1.279106913,-0.769552878,-0.352386035,1
1.61691E+18,-441.3682969,-1.674936954,-0.973741572,-0.499866169,1
1.61691E+18,-441.35828,-1.501442673,-1.240639528,-0.551692802,1
1.61691E+18,-441.348262,-1.002865375,-0.757367351,-0.727575147,1
1.61691E+18,-441.3382449,-0.2363713,0.107626262,-1.036271678,1
1.61691E+18,-441.3282271,0.65981883,0.516589925,-1.279659286,1
1.61691E+18,-441.31821,1.30829326,0.681178429,-1.257553545,1
1.61691E+18,-441.3081921,1.4431787,0.584408492,-0.835304431,1
1.61691E+18,-441.2981748,0.886296513,-0.094092242,-0.26650428,1
1.61691E+18,-441.288157,-0.182008426,-1.129534776,0.242949509,1
1.61691E+18,-441.2781396,-1.431469558,-1.919756348,0.517747863,1
1.61691E+18,-441.2681223,-2.48211609,-1.895274233,0.550468521,1
1.61691E+18,-441.2581055,-2.944544217,-1.224253041,0.416710916,1
1.61691E+18,-441.2480874,-2.4167946,-0.452037665,0.158304602,1
1.61691E+18,-441.2380706,-1.312607032,0.324607802,-0.349050169,1
1.61691E+18,-441.2280522,-0.064977791,1.249510816,-0.935178909,1
1.61691E+18,-441.2180354,1.21017074,1.83350839,-1.338050685,1
1.61691E+18,-441.2080176,2.334690318,1.760098286,-1.313634913,1
1.61691E+18,-441.1980005,2.653625334,1.358748021,-1.053155593,1
1.61691E+18,-441.1879824,2.11483293,0.826574742,-0.833367471,1
1.61691E+18,-441.1779653,1.286767657,0.385696184,-0.624530659,1
1.61691E+18,-441.1679475,0.474960276,0.220289349,-0.347136444,1
1.61691E+18,-441.1579304,-0.17831191,0.235964473,-0.057163318,1
1.61691E+18,-441.1479126,-0.46473465,0.253316005,0.151064422,1
1.61691E+18,-441.1378953,-0.469898316,0.131850018,0.153134506,1
1.61691E+18,-441.1278784,-0.347411754,-0.051165539,0.01661445,1
1.61691E+18,-441.1178606,-0.117032973,-0.221814951,-0.06474369,1
1.61691E+18,-441.1078435,-0.058933835,-0.44154199,-0.167364984,1
1.61691E+18,-441.0978257,-0.106531452,-0.637004941,-0.142043788,1
1.61691E+18,-441.0878083,-0.221157364,-0.810762256,-0.097074765,1
1.61691E+18,-441.0777905,-0.318971257,-0.932632148,-0.112569564,1
1.61691E+18,-441.0677732,-0.362190806,-0.997765422,-0.171375096,1
1.61691E+18,-441.0577554,-0.315046777,-1.015900213,-0.26106092,1
1.61691E+18,-441.0477388,-0.264909997,-0.933278044,-0.472929939,1
1.61691E+18,-441.0377205,-0.146693952,-0.86350542,-0.644418725,1
1.61691E+18,-441.0277036,-0.084783731,-0.66148764,-0.901332462,1
1.61691E+18,-441.0176853,0.082345106,-0.486110615,-1.132253387,1
1.61691E+18,-441.0076685,0.384676194,-0.391103596,-1.314313836,1
1.61691E+18,-440.9976504,0.63008654,-0.248278595,-1.377035957,1
1.61691E+18,-440.9876335,0.867576615,-0.155640644,-1.429163619,1
1.61691E+18,-440.9776155,0.943880102,-0.098770171,-1.239143152,1
1.61691E+18,-440.9675984,0.861697494,-0.067734981,-0.908268691,1
1.61691E+18,-440.9575803,0.674503189,0.005242577,-0.548810525,1
1.61691E+18,-440.9475632,0.370481664,0.193603587,-0.146928637,1
1.61691E+18,-440.9375457,0.116191261,0.271911984,0.212119487,1
1.61691E+18,-440.9275286,0.026202947,0.232138777,0.437191978,1
1.61691E+18,-440.9175105,0.165873284,0.122900403,0.404109208,1
1.61691E+18,-440.9074934,0.39018239,-0.014860885,0.289036722,1
1.61691E+18,-440.8974753,0.586383007,-0.198980019,0.117806295,1
1.61691E+18,-440.8874583,0.599565145,-0.299250658,-0.141830145,1
1.61691E+18,-440.8774407,0.351391179,-0.335433732,-0.22874212,1
1.61691E+18,-440.8674236,-0.01718962,-0.435011712,-0.261072318,1
1.61691E+18,-440.8574063,-0.282349792,-0.628653292,-0.467984884,1
1.61691E+18,-440.8473884,-0.350104062,-0.769978995,-0.592506166,1
1.61691E+18,-440.8373713,-0.419199226,-0.774297443,-0.673426792,1
1.61691E+18,-440.8273535,-0.595112257,-0.68070029,-0.837422592,1
1.61691E+18,-440.8173364,-0.767456198,-0.5853712,-1.041892733,1
1.61691E+18,-440.8073184,-0.852539205,-0.470755225,-1.242112815,1
1.61691E+18,-440.7973015,-0.786231041,-0.39653965,-1.346758892,1
1.61691E+18,-440.7872834,-0.722595312,-0.322430458,-1.254569561,1
1.61691E+18,-440.7772666,-0.80716277,-0.341251478,-1.134706333,1
1.61691E+18,-440.7672485,-0.937552068,-0.43488487,-1.115117836,1
1.61691E+18,-440.7572314,-0.916561887,-0.387504111,-1.019285472,1
1.61691E+18,-440.7472134,-0.836483557,-0.240627204,-0.846692817,1
1.61691E+18,-440.7371963,-0.822678319,-0.084525372,-0.683384707,1
1.61691E+18,-440.7271782,-0.594982493,0.011517419,-0.552772122,1
1.61691E+18,-440.7171616,-0.291040463,0.187744339,-0.455623999,1
1.61691E+18,-440.7071436,0.124461077,0.295765738,-0.34775896,1
1.61691E+18,-440.6971265,0.401919589,0.256998493,-0.190251938,1
1.61691E+18,-440.6871084,0.448899952,0.183586635,-0.076875442,1
1.61691E+18,-440.6770913,0.4328256,0.105721305,-0.061430328,1
1.61691E+18,-440.6670735,0.48604398,0.041478258,-0.060493924,1
1.61691E+18,-440.6570564,0.446920761,0.037958852,-0.019471593,1
1.61691E+18,-440.6470386,0.248370365,0.095900168,-0.06810586,1
1.61691E+18,-440.6370215,0.140808985,0.139072955,-0.287974646,1
1.61691E+18,-440.6270034,0.268949043,0.203201436,-0.540514406,1
1.61691E+18,-440.6169863,0.466308183,0.397127679,-0.63272478,1
1.61691E+18,-440.6069685,0.514415503,0.485766916,-0.703804687,1
1.61691E+18,-440.5969517,0.540728341,0.401551048,-0.71059917,1
1.61691E+18,-440.5869333,0.542628037,0.314003698,-0.623257571,1
1.61691E+18,-440.5769165,0.364034388,0.340291109,-0.434281644,1
1.61691E+18,-440.5668982,0.104935708,0.391073786,-0.157851013,1
1.61691E+18,-440.5568816,0.091219317,0.263929169,0.003797639,1
1.61691E+18,-440.5468638,0.311848273,0.035832361,0.000304536,1
1.61691E+18,-440.5368464,0.404819987,-0.021369536,-0.096772567,1
1.61691E+18,-440.5268286,0.330552974,0.103204646,-0.123173375,1
1.61691E+18,-440.5168113,0.055400985,0.192342481,-0.099133743,1
1.61691E+18,-440.5067935,-0.153156426,0.167144911,-0.065353639,1
1.61691E+18,-440.4967764,-0.227062204,0.065456515,-0.003695932,1
1.61691E+18,-440.4867585,-0.468481435,-0.017376667,0.003769874,1
1.61691E+18,-440.4767415,-0.777138219,-0.08261837,-0.032076515,1
1.61691E+18,-440.4667234,-0.881594619,-0.230631587,-0.007426351,1
1.61691E+18,-440.4567065,-0.840914233,-0.457230266,-0.015409751,1
1.61691E+18,-440.4466882,-0.695409199,-0.611345891,-0.062899232,1
1.61691E+18,-440.4366716,-0.541806199,-0.670598875,-0.119686118,1
1.61691E+18,-440.4266543,-0.382552041,-0.633676966,-0.171097156,1
1.61691E+18,-440.4166365,-0.240914204,-0.529694905,-0.199069451,1
1.61691E+18,-440.4066194,-0.105253688,-0.415792924,-0.151196524,1
1.61691E+18,-440.3966013,-0.178124863,-0.317244579,-0.053931497,1
1.61691E+18,-440.3865847,-0.464012181,-0.156738668,0.009440029,1
1.61691E+18,-440.3765664,-0.615963322,-0.00179419,0.092516956,1
1.61691E+18,-440.3665496,-0.533119035,0.055471712,-0.017992753,1
1.61691E+18,-440.3565313,-0.124996499,0.03564093,-0.279003112,1
1.61691E+18,-440.3465144,0.011278934,0.002293664,-0.466851496,1
1.61691E+18,-440.3364963,-0.151138656,0.060287588,-0.502014871,1
1.61691E+18,-440.3264795,-0.26100539,0.059248308,-0.597760141,1
1.61691E+18,-440.3164614,0.260949276,-0.029330139,-0.745961575,1
1.61691E+18,-440.3064443,0.521606292,-0.119833709,-0.952586556,1
1.61691E+18,-440.2964265,0.270965643,-0.005659341,-1.027988711,1
1.61691E+18,-440.2864092,-0.123701198,0.079222005,-0.922834684,1
1.61691E+18,-440.2763916,-0.051012394,0.107182902,-0.75704411,1
1.61691E+18,-440.2663748,0.096213472,-0.023062311,-0.71510671,1
1.61691E+18,-440.2563564,0.151875154,-0.117056061,-0.603126345,1
1.61691E+18,-440.2463396,0.105201081,-0.21739655,-0.453555669,1
1.61691E+18,-440.2363213,0.002543839,-0.249672095,-0.363217518,1
1.61691E+18,-440.2263047,-0.122160399,-0.1682254,-0.358111427,1
1.61691E+18,-440.2162869,0.122628016,-0.15228578,-0.294948284,1
1.61691E+18,-440.2062695,0.357324076,-0.235867442,-0.256303789,1
1.61691E+18,-440.1962517,0.08934534,-0.185958625,-0.343921574,1
1.61691E+18,-440.1862344,-0.310614932,0.00610007,-0.392756624,1
1.61691E+18,-440.1762166,-0.424531234,0.154989778,-0.376530004,1
1.61691E+18,-440.1661995,-0.27567689,0.146121705,-0.361726695,1
1.61691E+18,-440.1561816,-0.075955112,0.01823416,-0.333389951,1
1.61691E+18,-440.1461646,-0.045061962,-0.106256727,-0.278820449,1
1.61691E+18,-440.1361465,-0.150826521,-0.165927644,-0.321964594,1
1.61691E+18,-440.1261296,-0.244823486,-0.253518249,-0.48961877,1
1.61691E+18,-440.1161113,-0.484547604,-0.234447638,-0.557089547,1
1.61691E+18,-440.1060947,-0.671681118,-0.126124042,-0.473011187,1
1.61691E+18,-440.0960767,-0.509268204,-0.118989514,-0.471443646,1
1.61691E+18,-440.0860596,-0.525859273,-0.172613113,-0.385824925,1
1.61691E+18,-440.0760415,-0.966325743,-0.078583707,-0.206814658,1
1.61691E+18,-440.0660244,-1.006060372,-0.050179597,-0.140061089,1
1.61691E+18,-440.0560068,-0.570381136,-0.065739277,-0.166354784,1
1.61691E+18,-440.0459895,-0.161531455,-0.029509149,-0.175130941,1
1.61691E+18,-440.0359717,-0.285896671,0.082012951,-0.025201077,1
1.61691E+18,-440.0259543,-0.657707537,0.109271691,0.210890675,1
1.61691E+18,-440.0159365,-0.643468584,0.161048348,0.231394827,1
1.61691E+18,-440.0059194,-0.200357737,0.130219202,0.073950787,1
1.61691E+18,-439.9959016,0.001505728,0.035296354,-0.127479256,1
1.61691E+18,-439.9858848,-0.036338557,-0.002357085,-0.263875247,1
1.61691E+18,-439.9758667,-0.178393743,-0.005205167,-0.388713779,1
1.61691E+18,-439.9658496,-0.238875392,-0.098878454,-0.446097754,1
1.61691E+18,-439.9558315,0.104623573,-0.222166541,-0.52266866,1
1.61691E+18,-439.9458147,0.27072482,-0.111405927,-0.749262224,1
1.61691E+18,-439.9357966,-0.043048868,0.086221363,-0.762173582,1
1.61691E+18,-439.9257795,0.009880758,0.000949264,-0.750471161,1
1.61691E+18,-439.9157615,0.274713598,-0.066309478,-0.782819333,1
1.61691E+18,-439.9057444,-0.075337857,-0.085728318,-0.657895315,1
1.61691E+18,-439.8957266,-0.343808761,-0.214481101,-0.388191801,1
1.61691E+18,-439.8857097,-0.048714054,-0.258654297,-0.168384974,1
1.61691E+18,-439.8756917,0.184587337,-0.198647134,-0.123411276,1
1.61691E+18,-439.8656746,0.119317284,-0.108219113,-0.115128308,1
1.61691E+18,-439.8556565,0.199480954,0.026210108,-0.181699506,1
1.61691E+18,-439.8456394,0.190222128,0.107876437,-0.320231194,1
1.61691E+18,-439.8356216,0.206214647,0.073792089,-0.454533282,1
1.61691E+18,-439.8256047,0.136771108,-0.02744681,-0.503664392,1
1.61691E+18,-439.8155867,-0.710860451,0.137791975,-0.495930875,1
1.61691E+18,-439.8055696,-1.180703822,0.05936229,-0.0289049,1
1.61691E+18,-439.7955515,-0.535882654,-0.638607116,0.327512875,1
1.61691E+18,-439.7855344,-0.122314713,-0.952932447,0.118300801,1
1.61691E+18,-439.7755166,-0.522995116,-0.872854263,0.02241583,1
1.61691E+18,-439.7654998,-1.193949088,-0.9478379,0.075856036,1
1.61691E+18,-439.7554814,-1.858829878,-0.917889921,-0.04843553,1
1.61691E+18,-439.7454646,-1.926962919,-0.799862823,0.072729136,1
1.61691E+18,-439.7354463,-1.603700102,-0.925494258,0.517937832,1
1.61691E+18,-439.7254297,-1.030358947,-1.221372371,0.743699183,1
1.61691E+18,-439.7154119,-0.479675029,-1.265175418,0.463763759,1
1.61691E+18,-439.7053945,-0.467809235,-1.064088929,0.093387893,1
1.61691E+18,-439.6953767,-0.808498987,-0.890257087,0.077255966,1
1.61691E+18,-439.6853594,-0.558718755,-0.855068723,0.181762342,1
1.61691E+18,-439.6753416,0.09992051,-0.789198805,0.039594052,1
1.61691E+18,-439.6653245,0.260612592,-0.454940986,-0.014433307,1
1.61691E+18,-439.6553066,0.171426242,0.050345016,-0.08247107,1
1.61691E+18,-439.6452898,0.496242718,0.406782812,-0.248939397,1
1.61691E+18,-439.6352715,1.015064347,0.636926615,-0.245269477,1
1.61691E+18,-439.6252546,1.413065302,0.723173697,-0.073364511,1
1.61691E+18,-439.6152363,1.192569616,0.827939309,-0.192810683,1
1.61691E+18,-439.6052197,0.602768325,0.862942817,-0.33360184,1
1.61691E+18,-439.5952017,0.141185417,0.741660663,-0.358815484,1
1.61691E+18,-439.5851846,-0.214933375,0.519708057,-0.274992415,1
1.61691E+18,-439.5751665,-0.516781648,0.275098213,0.100778588,1
1.61691E+18,-439.5651494,-0.444528897,-0.149387428,0.641624418,1
1.61691E+18,-439.5551316,-0.155175364,-0.562423455,0.985251977,1
1.61691E+18,-439.5451145,-0.091506902,-0.866465146,0.911794234,1
1.61691E+18,-439.5350967,-0.485581038,-1.016547864,0.827453279,1
1.61691E+18,-439.5250796,-0.773392603,-1.120747366,0.927296047,1
1.61691E+18,-439.5150615,-0.685543639,-1.242499476,0.890383198,1
1.61691E+18,-439.5050444,-0.483970096,-1.295586046,0.645969461,1
1.61691E+18,-439.4950266,-0.456032288,-1.218336803,0.465575485,1
1.61691E+18,-439.4850098,-0.339908831,-1.078763789,0.422960332,1
1.61691E+18,-439.4749917,-0.273044203,-0.914069486,0.303111717,1
1.61691E+18,-439.4649746,-0.321377149,-0.671631433,0.112668056,1
1.61691E+18,-439.4549565,-0.523950224,-0.405205187,0.119248311,1
1.61691E+18,-439.4449397,-0.860636002,-0.295176832,0.200503868,1
1.61691E+18,-439.4349216,-1.0845149,-0.234788122,0.192517837,1
1.61691E+18,-439.4249045,-0.859879631,-0.242555541,0.246450503,1
1.61691E+18,-439.4148865,-0.375102894,-0.349893926,0.380183266,1
1.61691E+18,-439.4048694,-0.366844769,-0.617279665,0.395583372,1
1.61691E+18,-439.3948513,-0.518690696,-0.998419794,0.327528073,1
1.61691E+18,-439.3848347,-0.603413637,-1.317981126,0.346320744,1
1.61691E+18,-439.3748167,-0.57327335,-1.509002295,0.373770769,1
1.61691E+18,-439.3647996,-0.443325951,-1.539449456,0.278355461,1
1.61691E+18,-439.3547817,-0.153476744,-1.346574475,0.127998603,1
1.61691E+18,-439.3447644,0.292232888,-1.004772378,-0.059775547,1
1.61691E+18,-439.3347466,0.618590164,-0.546210279,-0.33018794,1
1.61691E+18,-439.3247297,0.738396108,0.046501931,-0.669920246,1
1.61691E+18,-439.3147117,0.7914894,0.706913467,-0.987892847,1
1.61691E+18,-439.3046946,0.694982498,1.368371004,-1.23984487,1
1.61691E+18,-439.2946775,0.527142883,1.915987351,-1.45484868,1
1.61691E+18,-439.2846594,0.480846411,2.234486314,-1.752288196,1
1.61691E+18,-439.2746414,0.564698414,2.323520689,-1.850207011,1
1.61691E+18,-439.264625,0.517049359,2.071571296,-1.680903168,1
1.61691E+18,-439.2546077,0.449021532,1.541653688,-1.437089444,1
1.61691E+18,-439.2445898,0.388922161,0.883689545,-1.170094457,1
1.61691E+18,-439.2345728,0.316148016,0.265534266,-0.850673995,1
1.61691E+18,-439.2245549,0.347159241,-0.24591888,-0.561651302,1
1.61691E+18,-439.2145378,0.356506915,-0.550074261,-0.388703257,1
1.61691E+18,-439.2045198,0.326041634,-0.640782706,-0.29568712,1
1.61691E+18,-439.194502,0.22672552,-0.508520016,-0.157900405,1
1.61691E+18,-439.1844846,0.005111059,-0.197205995,-0.01830138,1
1.61691E+18,-439.174468,-0.360895505,0.100378775,0.006160568,1
1.61691E+18,-439.1644497,-0.652001435,0.29148996,0.010330548,1
1.61691E+18,-439.1544329,-0.789092861,0.401007735,0.01770546,1
1.61691E+18,-439.1444148,-0.698604196,0.348867214,0.017769173,1
1.61691E+18,-439.1343977,-0.424407316,0.161893274,0.013548633,1
1.61691E+18,-439.1243799,-0.213327109,-0.082698157,0.000141454,1
1.61691E+18,-439.1143628,-0.124685533,-0.261612124,0.045633624,1
1.61691E+18,-439.104345,-0.101400519,-0.330729499,0.116209089,1
1.61691E+18,-439.0943276,-0.202307702,-0.345730669,0.120136784,1
1.61691E+18,-439.0843098,-0.273358676,-0.341969271,0.0775266,1
1.61691E+18,-439.0742925,-0.15257658,-0.265346634,0.005742343,1
1.61691E+18,-439.0642747,0.110420861,-0.094469259,-0.12236615,1
1.61691E+18,-439.0542581,0.456602781,0.20869828,-0.257213305,1
1.61691E+18,-439.0442397,0.698742143,0.5204957,-0.429967288,1
1.61691E+18,-439.0342229,0.801234549,0.707066904,-0.656720572,1
1.61691E+18,-439.0242048,0.879438902,0.978968367,-0.735126,1
1.61691E+18,-439.0141877,0.864982507,1.36167706,-0.704385117,1
1.61691E+18,-439.0041697,0.665457129,1.508770824,-0.703323626,1
1.61691E+18,-438.9941528,0.511411061,1.246979836,-0.721049837,1
1.61691E+18,-438.9841348,0.335381125,0.817787625,-0.669739921,1
1.61691E+18,-438.9741177,0.245914204,0.497297195,-0.480640075,1
1.61691E+18,-438.9640999,0.138452193,0.396695133,-0.312150471,1
1.61691E+18,-438.9540825,0.078005615,0.439690809,-0.10426,1
1.61691E+18,-438.9440649,-0.034350013,0.482036498,0.022231121,1
1.61691E+18,-438.9340479,-0.317789354,0.293129544,-0.040554713,1
1.61691E+18,-438.9240298,-0.483266332,0.168511231,-0.139792502,1
1.61691E+18,-438.9140127,-0.414928709,0.128543378,-0.232689981,1
1.61691E+18,-438.9039946,-0.354970791,0.075599139,-0.372949808,1
1.61691E+18,-438.893978,-0.250600901,-0.134514269,-0.491406968,1
1.61691E+18,-438.88396,-0.135249013,-0.377697002,-0.599043752,1
1.61691E+18,-438.8739429,-0.134552263,-0.519101031,-0.602901888,1
1.61691E+18,-438.8639248,-0.257285493,-0.6117723,-0.561900308,1
1.61691E+18,-438.8539077,-0.407203667,-0.74052143,-0.515475241,1
1.61691E+18,-438.8438896,-0.4915455,-0.782471981,-0.428193848,1
1.61691E+18,-438.8338728,-0.689925215,-0.725745885,-0.385055548,1
1.61691E+18,-438.8238547,-0.913455738,-0.738783646,-0.343343774,1
1.61691E+18,-438.8138379,-0.951835445,-0.710864543,-0.161588154,1
1.61691E+18,-438.8038196,-0.842037684,-0.582426963,0.106462479,1
1.61691E+18,-438.7938027,-0.763740977,-0.47400809,0.280938171,1
1.61691E+18,-438.7837847,-0.694180534,-0.535718988,0.213114927,1
1.61691E+18,-438.7737678,-0.407007268,-0.393569694,0.087205405,1
1.61691E+18,-438.76375,-0.102971714,-0.098355745,-0.066107672,1
1.61691E+18,-438.7537327,0.180264213,0.187665429,-0.28833325,1
1.61691E+18,-438.7437148,0.50361237,0.451268434,-0.506357285,1
1.61691E+18,-438.7336975,0.731062696,0.728709411,-0.760887341,1
1.61691E+18,-438.7236797,0.841496417,0.849672709,-0.92225513,1
1.61691E+18,-438.7136628,0.972988123,0.965762264,-0.898323635,1
1.61691E+18,-438.7036448,1.096962878,1.130268351,-0.665893182,1
1.61691E+18,-438.6936279,1.111255607,1.098297341,-0.375308061,1
1.61691E+18,-438.6836096,0.8511761,0.776157391,-0.475551812,1
1.61691E+18,-438.673593,0.825199947,0.795101746,-0.429802453,1
1.61691E+18,-438.6635747,0.925450127,1.183196808,0.102559042,1
1.61691E+18,-438.6535579,0.648714084,0.874182297,0.190918878,1
1.61691E+18,-438.6435398,0.296086056,0.409856812,-0.101017073,1
1.61691E+18,-438.6335227,0.171530287,0.474043745,-0.114904729,1
1.61691E+18,-438.6235049,0.222098444,0.685825378,0.243310159,1
1.61691E+18,-438.6134878,0.085009357,0.366404039,0.211047473,1
1.61691E+18,-438.60347,-0.049289224,0.035911271,-0.08948621,1
1.61691E+18,-438.5934526,-0.118199678,0.08041443,-0.010618425,1
1.61691E+18,-438.5834348,-0.294991831,-0.044541737,-0.005528408,1
1.61691E+18,-438.5734177,-0.271982711,-0.180019883,0.336243879,1
1.61691E+18,-438.5633997,-0.476899719,-0.409310284,0.630065497,1
1.61691E+18,-438.5533831,-0.852519331,-0.710118108,0.541263178,1
1.61691E+18,-438.5433647,-1.101158576,-0.973048914,0.502411177,1
1.61691E+18,-438.5333479,-1.166454347,-1.024331942,0.667497987,1
1.61691E+18,-438.5233298,-1.223060616,-0.915965675,0.767241679,1
1.61691E+18,-438.5133127,-1.148576161,-0.897341054,0.611824323,1
1.61691E+18,-438.5032947,-0.727409435,-0.734970225,0.537390136,1
1.61691E+18,-438.4932778,-0.277428117,-0.324495573,0.368349328,1
1.61691E+18,-438.4832598,0.233869546,0.136324533,0.226495218,1
1.61691E+18,-438.4732427,0.679884298,0.316937121,0.181923086,1
1.61691E+18,-438.4632249,1.032199022,0.566942978,0.200135619,1
1.61691E+18,-438.4532075,1.283008012,0.934247766,0.156367789,1
1.61691E+18,-438.4431899,1.404774443,1.094336037,0.005388707,1
1.61691E+18,-438.4331729,1.386665955,0.947604676,-0.277399768,1
1.61691E+18,-438.4231548,1.474391,0.970377064,-0.227179693,1
1.61691E+18,-438.4131377,1.358155315,0.998804117,-0.140525492,1
1.61691E+18,-438.4031199,1.005950482,0.784839879,-0.183899354,1
1.61691E+18,-438.393103,0.555258386,0.469575076,-0.087945994,1
1.61691E+18,-438.383085,-0.001038111,0.180683315,0.067087331,1
1.61691E+18,-438.3730679,-0.672702862,-0.101054482,0.07875205,1
1.61691E+18,-438.3630498,-1.315015262,-0.38238896,-0.131655665,1
1.61691E+18,-438.3530327,-1.54087452,-0.306492884,-0.204952956,1
1.61691E+18,-438.3430146,-1.333088679,0.069701313,-0.154035254,1
1.61691E+18,-438.3329978,-1.044431896,0.32492169,-0.354729091,1
1.61691E+18,-438.3229797,-0.458702384,0.540621958,-0.407110144,1
1.61691E+18,-438.3129629,0.135884973,0.779574506,-0.193836811,1
1.61691E+18,-438.3029446,0.494839865,0.729728818,0.006205869,1
1.61691E+18,-438.2929277,0.718419488,0.505925907,0.230722188,1
1.61691E+18,-438.2829097,0.750409202,0.251773452,0.407317065,1
1.61691E+18,-438.2728928,0.568190348,-0.179997671,0.318432912,1
1.61691E+18,-438.2628704,0.20636896,-0.719025053,0.048662324,1
1.61691E+18,-438.2528533,-0.140094699,-0.996664767,-0.028281215,1
1.61691E+18,-438.2428352,-0.481419243,-1.016359648,0.082468732,1
1.61691E+18,-438.2328186,-0.856668267,-1.182556756,0.023539281,1
1.61691E+18,-438.2228003,-1.117149926,-1.399104581,-0.156378018,1
1.61691E+18,-438.2127834,-1.111318736,-1.280596859,-0.225867149,1
1.61691E+18,-438.2027651,-0.971141034,-0.837813929,-0.234019768,1
1.61691E+18,-438.1927483,-0.960353098,-0.538895865,-0.521850622,1
1.61691E+18,-438.1827302,-0.779336021,-0.397196653,-0.729998574,1
1.61691E+18,-438.1727134,-0.421786319,-0.067795187,-0.701944739,1
1.61691E+18,-438.1626956,0.077149875,0.25864626,-0.577729453,1
1.61691E+18,-438.1526782,0.530074845,0.438486694,-0.540002949,1
1.61691E+18,-438.1426604,0.977315923,0.56005848,-0.516363715,1
1.61691E+18,-438.1326431,1.340498078,0.691601039,-0.364119436,1
1.61691E+18,-438.1226252,1.473988849,0.698284462,-0.18554303,1
1.61691E+18,-438.1126084,1.494554667,0.767193748,0.068348145,1
1.61691E+18,-438.1025903,1.486785202,0.940904886,0.373956354,1
1.61691E+18,-438.0925735,1.22819038,0.871010096,0.361193611,1
1.61691E+18,-438.0825552,0.809487998,0.568557428,-0.103545715,1
1.61691E+18,-438.0725383,0.747411774,0.686765874,-0.167414083,1
1.61691E+18,-438.0625203,0.699801297,0.87115272,-0.175077165,1
1.61691E+18,-438.0525034,0.585067833,0.708434685,-0.603099164,1
1.61691E+18,-438.0424854,0.741436791,0.592269727,-0.820088011,1
1.61691E+18,-438.0324683,0.821414583,0.632342795,-0.800325033,1
1.61691E+18,-438.0224502,0.671646046,0.62588149,-0.732407097,1
1.61691E+18,-438.0124331,0.405115755,0.537549711,-0.603926847,1
1.61691E+18,-438.0024155,0.272555543,0.434857398,-0.384063615,1
1.61691E+18,-437.9923982,0.083744451,0.258263983,-0.404466936,1
1.61691E+18,-437.9823804,0.054262336,0.156510412,-0.503095945,1
1.61691E+18,-437.9723633,0.101505733,0.21545243,-0.46212476,1
1.61691E+18,-437.9623452,0.099029699,0.320411519,-0.279206525,1
1.61691E+18,-437.9523284,0.105351887,0.365559405,-0.159613347,1
1.61691E+18,-437.9423105,0.284487973,0.386073201,-0.086732235,1
1.61691E+18,-437.9322935,0.352720382,0.427312974,-0.011366613,1
1.61691E+18,-437.9222754,0.204992996,0.440548303,0.140457687,1
1.61691E+18,-437.9122583,-0.072783497,0.325640652,0.365977631,1
1.61691E+18,-437.9022402,-0.256471839,0.112899818,0.54476008,1
1.61691E+18,-437.8922234,-0.200486332,-0.094763858,0.5405033,1
1.61691E+18,-437.8822053,-0.07676526,-0.227137608,0.409765627,1
1.61691E+18,-437.8721882,0.037119478,-0.177861243,0.424464306,1
1.61691E+18,-437.8621702,0.05884265,-0.149638481,0.452381949,1
1.61691E+18,-437.8521533,-0.027425767,-0.293677534,0.271738966,1
1.61691E+18,-437.8421353,-0.268214883,-0.479459341,0.054940381,1
1.61691E+18,-437.8321184,-0.601896218,-0.40471828,0.135758131,1
1.61691E+18,-437.8221003,-0.889237827,-0.348743003,0.130807523,1
1.61691E+18,-437.8120833,-0.861468361,-0.411214364,-0.072722999,1
1.61691E+18,-437.8020654,-0.452267967,-0.389552275,-0.287462897,1
1.61691E+18,-437.7920481,-0.009018004,-0.176078159,-0.403877738,1
1.61691E+18,-437.7820305,0.207502933,0.060578972,-0.443895275,1
1.61691E+18,-437.7720134,0.225084182,0.249478034,-0.481722317,1
1.61691E+18,-437.7619954,0.452562566,0.336707697,-0.5601219,1
1.61691E+18,-437.7519783,0.784064803,0.397340737,-0.673115827,1
1.61691E+18,-437.7419602,0.873261675,0.511701276,-0.693322164,1
1.61691E+18,-437.7319436,0.567082095,0.78886782,-0.545173045,1
1.61691E+18,-437.7219253,0.316100086,1.010148518,-0.348578168,1
1.61691E+18,-437.7119084,0.294367562,0.971810604,-0.322278482,1
1.61691E+18,-437.7018901,0.08046996,0.863020267,-0.369613941,1
1.61691E+18,-437.6918733,-0.269126737,0.751285985,-0.312428119,1
1.61691E+18,-437.6818552,-0.171578217,0.498118448,-0.233214297,1
1.61691E+18,-437.6718384,0.122864163,0.170383162,-0.290493935,1
1.61691E+18,-437.6618206,-0.021159692,-0.014323417,-0.314352657,1
1.61691E+18,-437.6518032,-0.503039538,-0.059947104,-0.107027127,1
1.61691E+18,-437.6417854,-0.901298852,-0.125993986,0.077622461,1
1.61691E+18,-437.6317681,-0.99436292,-0.33395606,0.15977789,1
1.61691E+18,-437.6217502,-0.859399154,-0.569988045,0.286877206,1
1.61691E+18,-437.6117334,-0.820140325,-0.635257513,0.330839682,1
1.61691E+18,-437.6017153,-0.87832831,-0.584092558,0.260768074,1
1.61691E+18,-437.5916985,-1.08757078,-0.444160064,0.357864467,1
1.61691E+18,-437.5816802,-1.195394026,-0.303359554,0.532038838,1
1.61691E+18,-437.5716633,-0.945977367,-0.299566299,0.42341772,1
1.61691E+18,-437.5616453,-0.66517422,-0.338551864,0.218629307,1
1.61691E+18,-437.5516284,-0.524769724,-0.289634396,0.184603703,1
1.61691E+18,-437.5416104,-0.397701679,-0.308167539,0.215187058,1
1.61691E+18,-437.5315933,-0.448947883,-0.205763396,0.186653329,1
1.61691E+18,-437.5215752,-0.269499662,-0.158086868,0.086695118,1
1.61691E+18,-437.5115581,0.425208111,-0.296817001,-0.107634445,1
1.61691E+18,-437.5015405,0.635033933,-0.132875562,-0.253197931,1
1.61691E+18,-437.4915234,0.464762707,0.024404081,-0.229184603,1
1.61691E+18,-437.4815054,0.537198997,0.127989105,-0.229806534,1
1.61691E+18,-437.4714883,0.50505497,-0.17538667,0.048313949,1
1.61691E+18,-437.4614702,0.242331085,-0.410824196,0.394799674,1
1.61691E+18,-437.4514534,-0.196035782,-0.595782412,0.468542518,1
1.61691E+18,-437.4414355,-0.194486799,-0.532236991,0.346939753,1
1.61691E+18,-437.4314185,-0.283579626,-0.412002008,0.224405698,1
1.61691E+18,-437.4214004,-0.70548285,-0.361211293,0.262770208,1
1.61691E+18,-437.4113833,-0.975012907,-0.5242495,0.366908043,1
1.61691E+18,-437.4013652,-0.541105942,-0.707762777,0.294967281,1
1.61691E+18,-437.3913484,-0.460743534,-0.796404791,0.154103059,1
1.61691E+18,-437.3813303,-0.740018741,-0.656745414,-0.032571021,1
1.61691E+18,-437.3713132,-1.050825396,-0.624201428,0.147246325,1
1.61691E+18,-437.3612952,-1.316733756,-0.932284357,0.607951865,1
1.61691E+18,-437.3512783,-1.377064599,-1.32741151,1.085056752,1
1.61691E+18,-437.34126,-1.301918464,-1.276071491,1.335292911,1
1.61691E+18,-437.3312434,-0.70421093,-0.915796456,1.181137245,1
1.61691E+18,-437.3212256,-0.305309812,-0.460155505,0.825389332,1
1.61691E+18,-437.3112083,-0.222833773,-0.061692632,0.605799656,1
1.61691E+18,-437.3011904,-0.021571196,0.129089029,0.454861491,1
1.61691E+18,-437.2911731,-0.153832133,0.374601374,0.136346745,1
1.61691E+18,-437.2811553,-0.467739092,0.535851675,0.005505612,1
1.61691E+18,-437.2711384,-0.045826516,0.291775061,0.137918524,1
1.61691E+18,-437.2611243,1.179855096,-0.135576637,-0.009771745,1
1.61691E+18,-437.2511072,1.330037474,-0.179484753,-0.482366168,1
1.61691E+18,-437.2410891,0.140979666,-0.230826525,-0.472299532,1
1.61691E+18,-437.2310723,-0.499399136,-0.464712584,-0.232557879,1
1.61691E+18,-437.221054,-0.418067591,-0.64963266,-0.032703415,1
1.61691E+18,-437.2110374,-0.045444239,-0.879142549,0.235243757,1
1.61691E+18,-437.2010193,0.664689067,-1.128772267,0.140185593,1
1.61691E+18,-437.1910022,0.109569797,-1.148914307,-0.238297007,1
1.61691E+18,-437.1809844,-1.068993506,-0.99085345,-0.183489897,1
1.61691E+18,-437.170967,-1.039459953,-1.198496084,0.107322895,1
1.61691E+18,-437.1609492,-0.25441666,-1.453256442,0.270397196,1
1.61691E+18,-437.1509321,-0.401126978,-0.71869772,0.672449179,1
1.61691E+18,-437.1409143,-0.674365242,-0.592734276,0.730515876,1
1.61691E+18,-437.1308972,-0.69417352,-0.779888979,0.457063385,1
1.61691E+18,-437.1208792,-0.643431175,-0.73012337,0.29400545,1
1.61691E+18,-437.1108621,-0.637992783,-0.540603253,0.042455578,1
1.61691E+18,-437.100844,-0.46142158,-0.306233356,-0.123545716,1
1.61691E+18,-437.0908274,-0.147784669,-0.159236622,0.150594758,1
1.61691E+18,-437.0808091,-0.490339047,-0.127922908,0.270144098,1
1.61691E+18,-437.0707922,-0.921415757,-0.350454191,0.568632247,1
1.61691E+18,-437.0607742,-0.311058,-0.819558726,1.235484044,1
1.61691E+18,-437.0507571,0.775737705,-1.094936925,1.591320513,1
1.61691E+18,-437.0407395,1.15604752,-1.17994862,1.86743141,1
1.61691E+18,-437.0307222,0.973565631,-1.157359479,2.326912377,1
1.61691E+18,-437.0207043,0.780631322,-1.019980761,2.829909245,1
1.61691E+18,-437.010687,0.911965207,-0.882183232,3.336768342,1
1.61691E+18,-437.0006692,1.389193428,-0.838533183,3.570357902,1
1.61691E+18,-436.9906519,1.732588347,-0.815839998,3.421636536,1
1.61691E+18,-436.9806343,2.154232044,-0.917433702,3.140166742,1
1.61691E+18,-436.9706174,2.401847206,-0.946700713,2.746065718,1
1.61691E+18,-436.9605991,2.264851642,-0.555435788,2.416467268,1
1.61691E+18,-436.9505823,1.28492992,-0.086401688,2.234090009,1
1.61691E+18,-436.9405642,0.283273336,0.256194775,1.970672881,1
1.61691E+18,-436.9305474,-0.14445874,0.320627792,1.344180566,1
1.61691E+18,-436.9205293,-0.171971016,0.166889183,0.748146518,1
1.61691E+18,-436.9105122,-0.426990902,0.016635785,0.168172793,1
1.61691E+18,-436.9004941,-1.452518191,-0.205634801,0.211556592,1
1.61691E+18,-436.8904771,-2.148728185,-0.523814615,0.592042348,1
1.61691E+18,-436.880459,-2.053762083,-0.825589823,0.84909754,1
1.61691E+18,-436.8704421,-1.919604957,-1.055806107,1.03200496,1
1.61691E+18,-436.8604243,-1.817552111,-1.109933419,1.097775363,1
1.61691E+18,-436.8504072,-1.298209088,-1.108200896,0.833717015,1
1.61691E+18,-436.8403892,-0.26852468,-1.023840943,0.263662042,1
1.61691E+18,-436.8303721,0.409368736,-0.885077785,-0.259967279,1
1.61691E+18,-436.820354,0.651879854,-0.673229516,-0.604490326,1
1.61691E+18,-436.8103374,0.892398921,-0.456058007,-0.879977247,1
1.61691E+18,-436.8003193,1.349892514,-0.282587692,-1.277575466,1
1.61691E+18,-436.7903022,1.790334434,0.00973112,-1.652970621,1
1.61691E+18,-436.7802842,1.876046386,0.482935492,-1.835620267,1
1.61691E+18,-436.7702671,1.561351491,0.995298155,-1.915601567,1
1.61691E+18,-436.7602493,1.246879883,1.445495161,-2.161036463,1
1.61691E+18,-436.7502322,0.987633904,1.661617453,-2.409598551,1
1.61691E+18,-436.7402141,0.979588544,1.445633108,-2.431891924,1
1.61691E+18,-436.7301973,1.003763201,1.097598838,-2.208629404,1
1.61691E+18,-436.720179,0.905436098,0.779537681,-1.767570814,1
1.61691E+18,-436.7101624,0.700672234,0.413714657,-1.318486153,1
1.61691E+18,-436.7001443,0.517009611,0.109518944,-0.967459423,1
1.61691E+18,-436.6901272,0.480112252,-0.031159108,-0.627579233,1
1.61691E+18,-436.6801094,0.682872374,0.008110241,-0.270072786,1
1.61691E+18,-436.670092,0.936992096,0.270932326,0.052209203,1
1.61691E+18,-436.6600742,1.11056821,0.691431528,0.254532979,1
1.61691E+18,-436.6500571,1.092895775,1.14716571,0.364791636,1
1.61691E+18,-436.6400393,0.854563988,1.356900931,0.441950571,1
1.61691E+18,-436.6300222,0.568619387,1.256493515,0.426155913,1
1.61691E+18,-436.6200042,0.382341613,0.9446657,0.351145388,1
1.61691E+18,-436.6099873,0.319841026,0.629507279,0.274007495,1
1.61691E+18,-436.599969,0.30224341,0.566791003,0.372874697,1
1.61691E+18,-436.5899524,0.211683433,0.588318944,0.560435204,1
1.61691E+18,-436.5799341,-0.021891514,0.412667193,0.466874584,1
1.61691E+18,-436.5699172,-0.494531238,-0.052236383,0.14761282,1
1.61691E+18,-436.5598992,-0.877487768,-0.427550874,0.06277239,1
1.61691E+18,-436.5498821,-0.959542951,-0.642852498,0.217575998,1
1.61691E+18,-436.5398645,-1.055439612,-0.789242498,0.347455593,1
1.61691E+18,-436.5298472,-1.247720426,-0.984501451,0.263823078,1
1.61691E+18,-436.5198293,-1.326588795,-1.225288814,0.144263802,1
1.61691E+18,-436.509812,-1.067720417,-1.192484861,0.264952667,1
1.61691E+18,-436.4997942,-0.672767159,-0.957616951,0.462308884,1
1.61691E+18,-436.4897771,-0.227652571,-0.696295919,0.573559182,1
1.61691E+18,-436.4797593,0.297613996,-0.186602184,0.792280259,1
1.61691E+18,-436.4697424,0.641108285,0.474388613,0.904676219,1
1.61691E+18,-436.4597241,0.615551819,0.957989292,0.707647626,1
1.61691E+18,-436.4497073,0.493500141,1.271835461,0.417554381,1
1.61691E+18,-436.4396892,0.421365464,1.536262642,0.205365044,1
1.61691E+18,-436.4296724,0.522350972,1.74295309,0.125755793,1
1.61691E+18,-436.4196543,0.78311554,1.807452742,0.108669926,1
1.61691E+18,-436.4096372,0.910306334,1.665555377,-0.070592416,1
1.61691E+18,-436.3996191,1.147027178,1.384064248,-0.216293557,1
1.61691E+18,-436.3896021,1.237052901,1.3033295,-0.377150767,1
1.61691E+18,-436.379584,1.075885019,1.213335341,-0.630846418,1
1.61691E+18,-436.3695671,0.865941123,1.071284247,-0.728019676,1
1.61691E+18,-436.3595493,0.695683925,0.83846041,-0.556014757,1
1.61691E+18,-436.3495322,0.495133295,0.435320339,-0.10760785,1
1.61691E+18,-436.3395142,0.092445644,-0.294933963,0.256424492,1
1.61691E+18,-436.3294971,-0.31138767,-1.04179804,0.381021471,1
1.61691E+18,-436.3194792,-0.491695137,-1.25019646,0.5462246,1
1.61691E+18,-436.3094622,-0.681442633,-1.110395776,0.834655757,1
1.61691E+18,-436.2994443,-0.643301411,-0.919510216,1.061862923,1
1.61691E+18,-436.2894272,-0.416971028,-0.687669545,1.025550085,1
1.61691E+18,-436.2794092,-0.250904852,-0.639708939,0.452903927,1
1.61691E+18,-436.2693928,0.220797299,-0.557525162,-0.078609426,1
1.61691E+18,-436.2593748,0.676740739,-0.339254167,-0.394690223,1
1.61691E+18,-436.2493577,1.153481469,0.217625683,-0.498976819,1
1.61691E+18,-436.2393396,1.415014098,0.462515805,-0.666112962,1
1.61691E+18,-436.2293225,1.425709679,0.400046197,-1.047482808,1
1.61691E+18,-436.2193047,1.70741299,0.904783771,-0.656884531,1
1.61691E+18,-436.2092878,1.326872873,0.900074863,-0.522789364,1
1.61691E+18,-436.1992698,0.666488225,0.399207408,-0.546440289,1
1.61691E+18,-436.1892527,0.230213946,0.158800569,-0.164511348,1
1.61691E+18,-436.1792349,-0.205174198,0.048508887,0.199213828,1
1.61691E+18,-436.1692175,-0.583705897,-0.265360663,0.174005445,1
1.61691E+18,-436.1591997,-0.587191986,-0.305806655,0.452681808,1
1.61691E+18,-436.1491829,-0.680758743,-0.227771814,0.426103014,1
1.61691E+18,-436.1391648,-0.547522823,-0.049899465,0.10948738,1
1.61691E+18,-436.1291477,0.007919103,0.345416196,0.081781627,1
1.61691E+18,-436.1191296,0.306420403,0.483732196,-0.178818982,1
1.61691E+18,-436.1091125,0.667504124,0.509594951,-0.537400365,1
1.61691E+18,-436.0990945,1.083136597,0.723834499,-0.522348927,1
1.61691E+18,-436.0890779,1.244109249,0.872256882,-0.371134283,1
1.61691E+18,-436.0790596,1.293902331,0.842480752,-0.11265315,1
1.61691E+18,-436.0690427,1.092567273,0.564967294,0.089409053,1
1.61691E+18,-436.0590247,0.49296355,0.096605102,0.124667121,1
1.61691E+18,-436.0490076,-0.140697926,-0.193314833,0.190178288,1
1.61691E+18,-436.03899,-0.439812975,-0.1416279,0.432844012,1
1.61691E+18,-436.0289727,-0.413797074,0.148498371,0.806514536,1
1.61691E+18,-436.0189548,-0.456789828,0.342907428,0.869563405,1
1.61691E+18,-436.0089375,-0.718961924,0.054383332,0.431535268,1
1.61691E+18,-435.9989197,-0.680992551,-0.161072021,-0.008249942,1
1.61691E+18,-435.9889028,-0.450720153,0.174442959,-0.217663092,1
1.61691E+18,-435.9788848,-0.165738844,0.700140319,-0.418628148,1
1.61691E+18,-435.9688679,0.3944003,1.126248009,-0.595413871,1
1.61691E+18,-435.9588496,0.975122797,1.286645492,-1.033662665,1
1.61691E+18,-435.9488328,1.486200681,1.21712012,-1.619975529,1
1.61691E+18,-435.9388145,1.694910066,1.379835817,-1.827270372,1
1.61691E+18,-435.9287979,1.460837107,1.568120839,-1.504722133,1
1.61691E+18,-435.9187798,0.933823988,1.300693891,-1.077517296,1
1.61691E+18,-435.9087627,0.226491711,0.603390256,-0.75788436,1
1.61691E+18,-435.8987446,-0.475707295,0.085026892,-0.32364451,1
1.61691E+18,-435.8887275,-1.045389343,-0.102636199,0.15293723,1
1.61691E+18,-435.8787097,-1.559212141,-0.053690674,0.431420701,1
1.61691E+18,-435.8686926,-1.521651933,-0.076363109,0.478501894,1
1.61691E+18,-435.8586748,-1.042375548,-0.170853995,0.182672151,1
1.61691E+18,-435.8486577,-0.393240608,-0.061263155,-0.29823885,1
1.61691E+18,-435.8386396,0.041262569,0.227272632,-0.767970285,1
1.61691E+18,-435.8286226,0.068234747,0.385573435,-1.037728599,1
1.61691E+18,-435.8186045,-0.0144751,0.440273578,-1.09924719,1
1.61691E+18,-435.8085879,-0.282066883,0.429607222,-1.185184475,1
1.61691E+18,-435.7985698,-0.445852255,0.39482817,-1.241444999,1
1.61691E+18,-435.7885527,-0.421194783,0.206130475,-1.069763613,1
1.61691E+18,-435.7785347,-0.678508333,0.088275665,-0.88676413,1
1.61691E+18,-435.7685176,-1.094499703,0.097165658,-0.612706366,1
1.61691E+18,-435.7584998,-1.198181027,0.002329904,-0.201483819,1
1.61691E+18,-435.7484827,-0.862137054,-0.050734746,0.326956411,1
1.61691E+18,-435.7384646,-0.347087929,0.217440389,0.904302125,1
1.61691E+18,-435.7284478,0.362780004,0.716779904,1.226938919,1
1.61691E+18,-435.7184297,1.201096622,0.874298032,0.946057446,1
1.61691E+18,-435.7084128,1.50029701,1.083739239,0.542233192,1
1.61691E+18,-435.6983948,1.33856448,1.433838625,0.264843653,1
1.61691E+18,-435.6883777,0.934167687,1.262511168,-0.17517215,1
1.61691E+18,-435.6783599,0.422183794,0.967379636,-0.479539128,1
1.61691E+18,-435.6683425,-0.172751937,0.588514466,-0.588444032,1
1.61691E+18,-435.6583247,-0.32445758,0.330374695,-0.755648272,1
1.61691E+18,-435.6483079,-0.007878186,0.150372056,-0.860918326,1
1.61691E+18,-435.6382898,0.024123218,0.066242989,-0.740799954,1
1.61691E+18,-435.6282727,-0.711067372,0.151599259,-0.642799014,1
1.61691E+18,-435.6182556,-1.118945577,0.200864518,-0.418144456,1
1.61691E+18,-435.6082375,-1.282707568,0.008022563,-0.074083766,1
1.61691E+18,-435.5982195,-1.637643288,-0.056601593,0.068204937,1
1.61691E+18,-435.5882029,-1.618758555,0.058553604,0.048579614,1
1.61691E+18,-435.5781846,-1.218182197,0.090007019,0.045211015,1
1.61691E+18,-435.5681677,-1.093542256,0.090729195,-0.07020254,1
1.61691E+18,-435.5581497,-0.947626888,0.16552374,-0.049015668,1
1.61691E+18,-435.5481326,-0.769892486,0.166762926,0.036698622,1
1.61691E+18,-435.5381157,-0.245302794,0.199015383,0.039718555,1
1.61691E+18,-435.5280977,0.181065008,0.215509714,-0.129790163,1
1.61691E+18,-435.5180808,0.30251229,0.374621833,-0.15496669,1
1.61691E+18,-435.5080625,-0.124676181,0.311314605,-0.082927874,1
1.61691E+18,-435.4980457,-0.266951147,0.267710441,0.013165479,1
1.61691E+18,-435.4880273,-0.388842666,0.213705002,-0.027710429,1
1.61691E+18,-435.4780107,0.013743279,0.268764626,-0.319303558,1
1.61691E+18,-435.4679929,0.559265868,0.201642516,-0.667088821,1
1.61691E+18,-435.4579756,0.649919368,0.37560266,-0.88149788,1
1.61691E+18,-435.4479578,-0.077011928,0.513252597,-0.991027053,1
1.61691E+18,-435.4379404,-0.158050043,0.676679072,-0.910303119,1
1.61691E+18,-435.4279229,-0.366287135,0.604771774,-0.739185797,1
1.61691E+18,-435.4179058,-0.792728587,0.575749677,-0.434068586,1
1.61691E+18,-435.4078877,-0.861526813,0.530046203,-0.226811444,1
1.61691E+18,-435.3978708,-0.859193402,0.453185666,-0.265866859,1
1.61691E+18,-435.3878525,-0.953502502,0.334957931,-0.280723944,1
1.61691E+18,-435.3778359,-1.122456216,0.253493407,-0.231129308,1
1.61691E+18,-435.3678176,-1.235570554,0.052082654,-0.176843591,1
1.61691E+18,-435.3578008,-1.525633696,-0.131101538,-0.198965406,1
1.61691E+18,-435.3477827,-2.200854679,0.065490125,-0.039942719,1
1.61691E+18,-435.3377656,-2.169445979,-0.113269236,0.242953016,1
1.61691E+18,-435.3277476,-1.600418596,-0.650156245,0.154589673,1
1.61691E+18,-435.3177307,-1.281307054,-0.810384363,0.003674305,1
1.61691E+18,-435.3077129,-1.250540159,-0.931186479,-0.06240268,1
1.61691E+18,-435.2976956,-1.679744062,-1.012811746,-0.145952486,1
1.61691E+18,-435.2876777,-2.247283252,-0.870120746,-0.1358575,1
1.61691E+18,-435.2776606,-2.075631385,-0.817165986,0.010094985,1
1.61691E+18,-435.2676421,-1.383855574,-0.968326561,0.138687171,1
1.61691E+18,-435.2576252,-0.743874247,-1.179227904,0.251210557,1
1.61691E+18,-435.2476074,-0.542531006,-1.206122633,-0.050717503,1
1.61691E+18,-435.2375901,-0.591021773,-0.778823688,-0.433382357,1
1.61691E+18,-435.2275723,-0.679925214,-0.340893166,-0.496648814,1
1.61691E+18,-435.2175552,-0.623082799,-0.271237154,-0.430922981,1
1.61691E+18,-435.2075371,-0.495987866,-0.267619548,-0.398348453,1
1.61691E+18,-435.1975203,-0.256516262,-0.314696795,-0.331033159,1
1.61691E+18,-435.1875022,-0.044145431,-0.364042279,-0.330427886,1
1.61691E+18,-435.1774851,-0.380832378,0.005525193,-0.446358304,1
1.61691E+18,-435.167467,-0.930963338,0.57996861,-0.522826773,1
1.61691E+18,-435.1574502,-1.010383496,0.611961831,-0.097286362,1
1.61691E+18,-435.1474319,-0.623889439,-0.259763281,0.360052625,1
1.61691E+18,-435.1374153,-0.234665665,-0.895837079,-0.006695844,1
1.61691E+18,-435.1273972,-0.29057986,-0.421638435,-0.441812039,1
1.61691E+18,-435.1173801,-0.588124883,-0.155332893,-0.283476165,1
1.61691E+18,-435.1073623,-0.886635536,-0.647155748,-0.098925946,1
1.61691E+18,-435.097345,-0.836172592,-1.332542881,-0.265004689,1
1.61691E+18,-435.0873274,0.142554368,-1.879757515,-0.344106283,1
1.61691E+18,-435.0773101,1.12291565,-1.928589789,-0.179564832,1
1.61691E+18,-435.0672922,0.891255597,-1.384891347,-0.249510475,1
1.61691E+18,-435.0572751,-0.049265843,-0.838946148,-0.71726418,1
1.61691E+18,-435.0472571,-0.610175386,-0.65046385,-1.09180155,1
1.61691E+18,-435.0372405,-0.726471862,-0.483150596,-0.885081876,1
1.61691E+18,-435.0272222,-1.102552076,0.024631168,-0.894808321,1
1.61691E+18,-435.0172053,-1.237159284,0.645344461,-1.00142336,1
1.61691E+18,-435.0071873,-0.986642555,1.075476438,-0.866553409,1
1.61691E+18,-434.9971702,-0.580476998,1.275733053,-0.599062164,1
1.61691E+18,-434.9871521,-0.556753593,1.431807412,-0.467678302,1
1.61691E+18,-434.9771353,-0.689733492,1.368823132,-0.214817055,1
1.61691E+18,-434.9671172,-0.84753219,1.155593346,0.093839144,1
1.61691E+18,-434.9571001,-0.948202057,0.740852269,0.433480264,1
1.61691E+18,-434.9470823,-1.14154787,0.210865979,0.619969635,1
1.61691E+18,-434.9370649,-1.226563071,-0.326442031,0.626976299,1
1.61691E+18,-434.9270471,-1.156862343,-0.745849931,0.597836714,1
1.61691E+18,-434.9170303,-1.063116723,-0.991404947,0.552855124,1
1.61691E+18,-434.9070122,-1.026960537,-1.082814818,0.525699698,1
1.61691E+18,-434.8969954,-1.067783545,-1.093295003,0.464777028,1
1.61691E+18,-434.8869771,-0.982978771,-1.119803071,0.428230966,1
1.61691E+18,-434.8769602,-0.906462518,-1.300619072,0.489115642,1
1.61691E+18,-434.8669424,-0.885447787,-1.336818513,0.42351592,1
1.61691E+18,-434.8569253,-0.878828661,-1.128579959,0.237182032,1
1.61691E+18,-434.8469072,-0.838977128,-0.679336893,0.019501112,1
1.61691E+18,-434.8368901,-0.482824433,-0.493040707,0.092830844,1
1.61691E+18,-434.8268721,-0.588092149,-0.305817469,0.068303136,1
1.61691E+18,-434.8168552,-0.939855085,0.028339375,-0.133313076,1
1.61691E+18,-434.8068372,-0.855915403,0.248536954,-0.223735106,1
1.61691E+18,-434.7968203,-0.504844542,0.282637084,-0.208232416,1
1.61691E+18,-434.7868022,-0.211842423,0.39403322,-0.232092015,1
1.61691E+18,-434.7767852,-0.305941095,0.630522593,-0.47037324,1
1.61691E+18,-434.7667671,-0.361063847,0.694732907,-0.617472265,1
1.61691E+18,-434.7567502,-0.345531932,0.54263622,-0.605272709,1
1.61691E+18,-434.7467324,-0.360748206,0.505881776,-0.808233322,1
1.61691E+18,-434.7367151,-0.343051221,0.527068649,-1.111980122,1
1.61691E+18,-434.7266973,-0.081547818,0.328158188,-1.268826342,1
1.61691E+18,-434.7166802,0.016677579,0.317183205,-1.393031983,1
1.61691E+18,-434.7066621,-0.178202019,0.501340333,-1.414472246,1
1.61691E+18,-434.6966453,-0.394125575,0.596629092,-1.213510698,1
1.61691E+18,-434.6866272,-0.42704234,0.597345715,-0.900935864,1
1.61691E+18,-434.6766104,-0.177992761,0.500883237,-0.432151354,1
1.61691E+18,-434.666592,-0.010201076,0.285583367,-0.104565998,1
1.61691E+18,-434.6565752,0.07018705,-0.068287354,-0.022012218,1
1.61691E+18,-434.6465569,0.142499422,0.028391397,0.11018939,1
1.61691E+18,-434.6365403,0.32835751,0.546001897,0.317924963,1
1.61691E+18,-434.6265225,0.220960965,1.056085509,0.245324422,1
1.61691E+18,-434.6165051,-0.056020578,1.310161977,-0.153249949,1
1.61691E+18,-434.6064873,-0.141062668,1.330168992,-0.663275108,1
1.61691E+18,-434.59647,0.141057991,1.301682902,-1.018707087,1
1.61691E+18,-434.5864524,0.324358211,1.258819327,-1.36425597,1
1.61691E+18,-434.5764351,0.000789105,1.132206625,-1.801399141,1
1.61691E+18,-434.5664172,-0.028304888,1.071950017,-2.026148684,1
1.61691E+18,-434.5564001,0.074137249,0.747937259,-2.104761033,1
1.61691E+18,-434.5463821,-0.045024552,0.231128138,-1.942911014,1
1.61691E+18,-434.5363655,-0.131457804,-0.168261056,-1.572970617,1
1.61691E+18,-434.5263481,-0.292024798,-0.448312507,-1.193852057,1
1.61691E+18,-434.5163303,-0.564901828,-0.5450199,-0.813339705,1
1.61691E+18,-434.5063123,-0.81556235,-0.579123246,-0.409660413,1
1.61691E+18,-434.4962952,-0.987311248,-0.631324557,-0.058541036,1
1.61691E+18,-434.4862771,-1.146481234,-0.695124537,0.155511464,1
1.61691E+18,-434.4762603,-1.145588085,-0.68605568,0.25471272,1
1.61691E+18,-434.4662434,-0.94505616,-0.55830959,0.174007198,1
1.61691E+18,-434.4562251,-0.667221216,-0.250500947,0.003856091,1
1.61691E+18,-434.4462083,-0.398707057,-0.000617255,-0.281729029,1
1.61691E+18,-434.4361899,0.003546879,0.093592476,-0.545264815,1
1.61691E+18,-434.4261733,0.485052631,0.303320099,-0.785895526,1
1.61691E+18,-434.4161553,0.730855776,0.643233022,-1.152166294,1
1.61691E+18,-434.4061382,1.005022261,1.264718907,-1.31810183,1
1.61691E+18,-434.3961201,1.104390982,2.03433959,-1.146897999,1
1.61691E+18,-434.386103,0.872822114,2.238348251,-0.983652725,1
1.61691E+18,-434.3760852,0.631747751,1.732346355,-0.779334268,1
1.61691E+18,-434.3660681,0.516310523,1.036356726,-0.334350613,1
1.61691E+18,-434.3560503,0.018985271,0.41364276,-0.291156198,1
1.61691E+18,-434.3460332,-0.101903208,0.264859143,-0.187277306,1
1.61691E+18,-434.3360151,-0.098066406,0.335733591,0.238206699,1
1.61691E+18,-434.3259983,-0.277888721,-0.008396072,0.298837401,1
1.61691E+18,-434.31598,-0.233123696,-0.481277204,0.203511817,1
1.61691E+18,-434.3059634,-0.388738621,-0.943672012,-0.22302082,1
1.61691E+18,-434.2959453,-0.426184262,-1.185976209,-0.814401489,1
1.61691E+18,-434.2859282,0.159680859,-0.519985997,-0.658470923,1
1.61691E+18,-434.2759102,0.389675025,0.195908941,-0.340475233,1
1.61691E+18,-434.2658926,0.411426253,0.227899824,-0.230962134,1
1.61691E+18,-434.255875,0.387137031,-0.1297019,-0.319945655,1
1.61691E+18,-434.2458577,0.217538005,-0.141533792,-0.511205601,1
1.61691E+18,-434.2358398,0.39023149,0.658598349,-0.168157595,1
1.61691E+18,-434.2258228,0.267318227,1.084822358,-0.099387718,1
1.61691E+18,-434.2158047,0.661278966,1.152449203,0.07418898,1
1.61691E+18,-434.2057876,0.938228945,1.104879642,0.657192574,1
1.61691E+18,-434.19577,0.188746794,0.529798366,0.45019233,1
1.61691E+18,-434.1857529,-0.289230783,0.107159814,-0.045196109,1
1.61691E+18,-434.1757349,-0.617110154,0.259769127,-0.012500001,1
1.61691E+18,-434.1657178,-1.056610994,0.318711729,0.40754006,1
1.61691E+18,-434.1556997,-1.510067878,-0.028711715,0.51499681,1
1.61691E+18,-434.1456829,-1.686130548,-0.439175261,0.213935012,1
1.61691E+18,-434.1356648,-1.115970361,-0.309117387,0.107951841,1
1.61691E+18,-434.1256477,-0.527300704,0.245297534,-0.007181436,1
1.61691E+18,-434.1156296,0.019127894,0.787670134,-0.22491204,1
1.61691E+18,-434.1056128,0.533221911,1.040226845,-0.025985505,1
1.61691E+18,-434.0955947,0.477982254,0.695853436,-0.047542672,1
1.61691E+18,-434.0855779,0.795457135,0.56052259,0.155952778,1
1.61691E+18,-434.0755598,0.942742623,0.68529814,0.17449089,1
1.61691E+18,-434.0655427,0.737776515,0.804629452,-0.598236527,1
1.61691E+18,-434.0555249,1.040493387,1.053563881,-0.694926384,1
1.61691E+18,-434.0455076,1.03555067,0.962069254,-0.472152525,1
1.61691E+18,-434.0354897,0.66635963,0.644381607,-0.186111185,1
1.61691E+18,-434.0254729,-0.09167992,0.125543611,0.039591713,1
1.61691E+18,-434.0154548,-0.951407575,-0.519466357,0.222584182,1
1.61691E+18,-434.0054377,-1.378859081,-0.921242739,0.402697588,1
1.61691E+18,-433.9954197,-1.291538525,-0.93368721,0.463705891,1
1.61691E+18,-433.9854028,-0.93605803,-0.54063131,0.533658256,1
1.61691E+18,-433.9753845,-0.665280603,-0.163794724,0.516846238,1
1.61691E+18,-433.9653679,-0.107559042,0.240278244,0.628681349,1
1.61691E+18,-433.9553496,0.089918171,0.292153977,0.12206746,1
1.61691E+18,-433.9453328,0.299123232,0.239314952,-0.754799254,1
1.61691E+18,-433.9353147,0.816137519,0.847235838,-0.801638454,1
1.61691E+18,-433.9252976,0.866354964,1.38049165,-0.696116471,1
1.61691E+18,-433.91528,0.850300486,1.507986396,-0.603495178,1
1.61691E+18,-433.9052627,0.348379722,0.908833339,-0.781145117,1
1.61691E+18,-433.8952449,-0.269433027,-0.055236734,-0.906081994,1
1.61691E+18,-433.8852275,-0.686111794,-0.307166838,-0.318059695,1
1.61691E+18,-433.8752097,-1.100992572,-0.416141007,0.32292847,1
1.61691E+18,-433.8651931,-1.428895324,-0.79551851,0.677566669,1
1.61691E+18,-433.8551748,-1.485473535,-1.258110302,0.863712633,1
1.61691E+18,-433.845158,-1.37745389,-1.363911102,0.809631206,1
1.61691E+18,-433.8351406,-1.312497142,-0.967839655,0.437705189,1
1.61691E+18,-433.8251228,-1.040479359,-0.194715347,0.486651298,1
1.61691E+18,-433.8151057,-1.089990701,0.263725755,0.688142423,1
1.61691E+18,-433.8050879,-1.188206745,0.256465993,0.698743897,1
1.61691E+18,-433.7950708,-1.069866781,0.115643564,0.734651076,1
1.61691E+18,-433.7850527,-1.215181261,-0.134949738,0.49362932,1
1.61691E+18,-433.7750359,-0.936831937,0.018131284,0.499112428,1
1.61691E+18,-433.7650176,-0.466343254,0.70465049,0.93289869,1
1.61691E+18,-433.755001,-0.233401929,0.945099999,1.138044538,1
1.61691E+18,-433.7449829,0.081487028,0.646563043,1.036113857,1
1.61691E+18,-433.7349658,0.389829339,0.387801048,0.87799601,1
1.61691E+18,-433.7249478,0.55239189,0.521809705,0.728720517,1
1.61691E+18,-433.7149307,0.619353549,0.781174927,0.486461328,1
1.61691E+18,-433.7049126,0.526469514,0.833324217,0.311005977,1
1.61691E+18,-433.6948958,0.215861596,0.531160302,0.151978029,1
1.61691E+18,-433.6848779,0.098690676,0.17667291,-0.001439677,1
1.61691E+18,-433.6748606,0.24058921,0.099704237,-0.183225401,1
1.61691E+18,-433.6648428,0.501124645,0.323712314,-0.484224363,1
1.61691E+18,-433.6548257,0.812599993,0.753335319,-0.751041362,1
1.61691E+18,-433.6448079,1.001533834,1.152595918,-0.74751465,1
1.61691E+18,-433.6347908,0.870710821,1.115312189,-0.623079876,1
1.61691E+18,-433.6247727,0.75361472,0.697805155,-0.732162474,1
1.61691E+18,-433.6147559,0.870040959,0.370779186,-1.092652029,1
1.61691E+18,-433.6047378,0.898959595,0.352720382,-1.169203938,1
1.61691E+18,-433.5947209,0.590918897,0.357159241,-0.706305856,1
1.61691E+18,-433.5847029,-0.053175125,-0.076941785,-0.032201311,1
1.61691E+18,-433.5746858,-0.764009857,-0.7825959,0.190771578,1
1.61691E+18,-433.5646677,-0.92541038,-0.950376479,-0.022607553,1
1.61691E+18,-433.5546506,-0.562296029,-0.535365352,0.086278061,1
1.61691E+18,-433.5446326,-0.21725042,-0.114057756,0.446766447,1
1.61691E+18,-433.534616,-0.414456415,0.01333762,0.337939285,1
1.61691E+18,-433.5245979,-0.420837056,0.114588502,0.140701433,1
1.61691E+18,-433.5145808,-0.264528888,0.328345235,0.253068168,1
1.61691E+18,-433.5045627,-0.156767602,0.460713139,0.530610851,1
1.61691E+18,-433.4945457,-0.105174193,0.576124064,0.770121034,1
1.61691E+18,-433.4845278,-0.241035785,0.635529608,0.632917087,1
1.61691E+18,-433.4745107,-0.025847558,0.753197371,0.548594252,1
1.61691E+18,-433.4644929,0.337204833,0.991132852,0.600443681,1
1.61691E+18,-433.4544758,0.197456171,1.227638007,0.404307946,1
1.61691E+18,-433.4444578,-0.18798224,1.10735217,0.051202948,1
1.61691E+18,-433.4344407,-0.27814591,0.647249272,0.154678228,1
1.61691E+18,-433.4244226,-0.153841485,-0.093714056,0.636233372,1
1.61691E+18,-433.414406,-0.44260582,-0.998439375,0.576812046,1
1.61691E+18,-433.4043877,-0.753537563,-1.271973992,0.490711972,1
1.61691E+18,-433.3943708,-0.629154812,-0.874378111,0.764546448,1
1.61691E+18,-433.3843525,-0.591021773,-0.752764825,0.878335325,1
1.61691E+18,-433.3743357,-0.802585964,-0.542622776,0.678397274,1
1.61691E+18,-433.3643179,-1.200571721,-0.140881466,0.380365637,1
1.61691E+18,-433.3543008,-1.103163486,-0.099121468,0.487950106,1
1.61691E+18,-433.344283,-0.86854809,-0.257986919,0.743162007,1
1.61691E+18,-433.3342656,-1.087601175,-0.163808752,0.586360211,1
1.61691E+18,-433.3242478,-1.067443354,0.041270168,0.267450329,1
1.61691E+18,-433.3142307,-0.23732524,0.550603838,0.676961688,1
1.61691E+18,-433.3042129,0.212914436,0.961647814,1.048928038,1
1.61691E+18,-433.2941958,0.295667538,0.962111925,0.856665345,1
1.61691E+18,-433.2841787,0.518951393,0.986985084,0.575592441,1
1.61691E+18,-433.2741609,1.038255838,1.276961718,0.440580159,1
1.61691E+18,-433.2641448,1.284247199,1.612633934,0.075378189,1
1.61691E+18,-433.2541267,0.931116482,1.762760198,-0.609845132,1
1.61691E+18,-433.2441096,0.6046575,1.659458814,-0.864880215,1
1.61691E+18,-433.2340916,0.434869088,1.29744921,-0.312527488,1
1.61691E+18,-433.2240745,-0.257811563,0.529537669,-0.110610538,1
1.61691E+18,-433.2140564,-0.941821416,-0.113525257,-0.304588511,1
1.61691E+18,-433.2040396,-1.034629464,-0.379525387,-0.318030177,1
1.61691E+18,-433.1940215,-0.781487062,-0.314600787,0.048000645,1
1.61691E+18,-433.1840046,-0.786925453,-0.476193032,0.525229158,1
1.61691E+18,-433.1739866,-0.85385321,-0.897729176,0.665578417,1
1.61691E+18,-433.1639695,-0.528735121,-0.865708483,0.580955722,1
1.61691E+18,-433.1539517,-0.280434898,-0.55896367,0.217399765,1
1.61691E+18,-433.1439346,-0.082912092,-0.060826517,0.049057169,1
1.61691E+18,-433.1339167,-0.087968206,0.291035202,0.109229021,1
1.61691E+18,-433.1238994,-0.178595987,0.291751242,0.160496851,1
1.61691E+18,-433.1138816,-0.137760119,0.227615162,0.29741409,1
1.61691E+18,-433.1038647,-0.37234512,0.494478631,0.641912002,1
1.61691E+18,-433.0938467,-1.030860467,0.653472676,0.835951058,1
1.61691E+18,-433.0838296,-0.670441931,0.576247398,1.071648989,1
1.61691E+18,-433.0738115,-0.083878891,0.280635974,0.916793942,1
1.61691E+18,-433.0637944,0.195963302,0.003784779,0.275070448,1
1.61691E+18,-433.0537764,0.288557414,-0.120690911,0.065346625,1
1.61691E+18,-433.0437598,-0.118164607,-0.424361723,0.146569156,1
1.61691E+18,-433.0337415,-0.632722734,-0.847768337,0.469756862,1
1.61691E+18,-433.0237246,-0.724696084,-1.220496903,1.181448795,1
1.61691E+18,-433.0137065,-0.781655404,-1.712636277,1.253826926,1
1.61691E+18,-433.0036895,-0.53519058,-1.663170528,0.298120485,1
1.61691E+18,-432.9936716,0.293874225,-0.457801636,-0.149842186,1
1.61691E+18,-432.9836545,0.602379033,0.385128614,0.075657883,1
1.61691E+18,-432.9736367,0.270563492,0.151946465,-0.419051342,1
1.61691E+18,-432.9636194,0.371522113,0.36534547,-1.017162781,1
1.61691E+18,-432.9536016,0.875901376,1.085818968,-1.195802607,1
1.61691E+18,-432.9435845,1.293532913,1.632397788,-1.476107741,1
1.61691E+18,-432.9335664,1.276338617,1.812688889,-1.830027562,1
1.61691E+18,-432.9235498,0.84688454,1.631715067,-1.486483005,1
1.61691E+18,-432.9135315,0.215029237,0.825671656,-1.047721,1
1.61691E+18,-432.9035146,0.010441899,-0.068636898,-0.791142779,1
1.61691E+18,-432.8934966,-0.439607223,-0.634629444,-0.854809488,1
1.61691E+18,-432.8834797,-0.806517458,-0.873300838,-0.910952815,1
1.61691E+18,-432.8734617,-0.870145004,-1.042737367,-0.669928721,1
1.61691E+18,-432.8634446,-0.817989285,-1.105650627,-0.20537878,1
1.61691E+18,-432.8534265,-1.328965461,-1.114842234,-0.186204124,1
1.61691E+18,-432.8434094,-1.798760902,-1.265965107,-0.704746352,1
1.61691E+18,-432.8333916,-1.323372756,-1.068427688,-0.782627464,1
1.61691E+18,-432.8233745,-1.147519345,-0.457201916,-0.638989101,1
1.61691E+18,-432.8133567,-1.396869369,-0.091436759,-0.574962619,1
1.61691E+18,-432.8033396,-1.316584119,-0.213437583,-0.553318065,1
1.61691E+18,-432.7933215,-0.796239225,-0.206881001,-0.525268906,1
1.61691E+18,-432.7833044,-0.382562563,0.197536835,-0.551212033,1
1.61691E+18,-432.7732876,-0.222246913,0.743647453,-0.406270186,1
1.61691E+18,-432.7632698,-0.173729258,1.003518871,0.005247838,1
1.61691E+18,-432.7532524,-0.146930098,0.827865951,0.411044561,1
1.61691E+18,-432.7432346,-0.056086044,0.550574612,0.596859685,1
1.61691E+18,-432.7332175,0.247701672,0.682097882,0.807052003,1
1.61691E+18,-432.7231995,0.360484002,0.947267991,0.779255357,1
1.61691E+18,-432.7131826,0.33801498,1.100727784,0.338387905,1
1.61691E+18,-432.7031646,0.360598568,1.263414254,-0.131494044,1
1.61691E+18,-432.6931477,0.456623824,1.519157778,-0.018484336,1
1.61691E+18,-432.6831296,0.412272641,1.470268952,0.457941336,1
1.61691E+18,-432.6731125,0.16994857,1.016202996,0.843793296,1
1.61691E+18,-432.6630945,-0.063444006,0.545219807,1.056541436,1
1.61691E+18,-432.6530776,-0.106006552,0.278339972,1.201263503,1
1.61691E+18,-432.6430596,0.022196634,0.207810391,1.300513858,1
1.61691E+18,-432.6330425,-0.005870938,0.205751705,1.051044592,1
1.61691E+18,-432.6230244,0.027283144,0.304453487,0.881152136,1
1.61691E+18,-432.6130076,-0.10302549,0.214685538,0.807213916,1
1.61691E+18,-432.6029897,-0.33750177,-0.193884157,0.644791357,1
1.61691E+18,-432.5929727,-0.428384403,-0.569326659,0.557232316,1
1.61691E+18,-432.5829546,-0.578230096,-0.741981565,0.531858806,1
1.61691E+18,-432.5729375,-0.669105714,-0.927155762,0.370524042,1
1.61691E+18,-432.5629197,-0.40636897,-0.750536043,0.412010775,1
1.61691E+18,-432.5529023,-0.185632462,-0.406409887,0.410854591,1
1.61691E+18,-432.5428848,-0.083429978,-0.334131417,0.082971713,1
1.61691E+18,-432.5328677,0.387704017,-0.344810632,-0.110498603,1
1.61691E+18,-432.5228496,1.358646314,-0.096010643,0.402540936,1
1.61691E+18,-432.5128325,1.437096166,-0.188551564,0.578739215,1
1.61691E+18,-432.5028145,-0.033735096,-0.496526211,-0.493654455,1
1.61691E+18,-432.4927976,-1.439941618,-0.253750889,-0.895093567,1
1.61691E+18,-432.4827795,-2.309546524,-0.422502943,-0.230212193,1
1.61691E+18,-432.4727627,-2.879588637,-1.589842841,0.649906508,1
1.61691E+18,-432.4627444,-2.622609434,-2.481219434,1.997546567,1
1.61691E+18,-432.4527275,-1.91359841,-2.499084176,3.162195034,1
1.61691E+18,-432.4427095,-0.656883362,-2.133386824,3.21485578,1
1.61691E+18,-432.4326926,0.9192729,-1.421539116,1.619835244,1
1.61691E+18,-432.4226748,2.346759526,-0.036498716,-0.049314358,1
1.61691E+18,-432.4126575,2.856738508,1.219161855,-0.688718762,1
1.61691E+18,-432.4026396,2.129331411,2.066277866,-0.859743729,1
1.61691E+18,-432.3926223,0.453325952,1.754352436,-1.731565434,1
1.61691E+18,-432.3826045,-0.308650939,0.718273358,-2.65130712,1
1.61691E+18,-432.3725876,0.997804585,0.481112369,-2.058345904,1
1.61691E+18,-432.3625696,1.722838522,0.917097309,-0.581178424,1
1.61691E+18,-432.3525527,1.117909804,0.937757235,0.556853254,1
1.61691E+18,-432.3425344,0.4603823,0.577108983,1.053144195,1
1.61691E+18,-432.3325176,0.047000236,0.348785381,1.002177101,1
1.61691E+18,-432.3224998,-0.081927757,0.318666137,0.483473837,1
1.61691E+18,-432.3124827,0.526048658,0.58228434,-0.04720365,1
1.61691E+18,-432.3024646,0.85160397,0.973549849,-0.078733929,1
1.61691E+18,-432.2924475,-0.135030402,0.847259803,0.003794716,1
1.61691E+18,-432.2824307,-1.307505325,0.219164144,0.197095521,1
1.61691E+18,-432.2724126,-1.639385163,-0.345250192,0.598828063,1
1.61691E+18,-432.262395,-1.56135266,-0.510852258,0.972410031,1
1.61691E+18,-432.252377,-1.320007079,-0.437816248,0.98268388,1
1.61691E+18,-432.2423599,-0.754350049,-0.297238733,0.983790672,1
1.61691E+18,-432.2323418,-0.614945085,-0.037145197,1.236652211,1
1.61691E+18,-432.2223247,-1.333168174,0.03375497,1.331343881,1
1.61691E+18,-432.2123066,-1.878438249,-0.079914664,1.24056354,1
1.61691E+18,-432.2022898,-1.770911941,-0.254512521,0.895780965,1
1.61691E+18,-432.1922717,-1.1423171,-0.216548409,0.496819056,1
1.61691E+18,-432.1822549,-0.553695374,-0.002384849,0.133316584,1
1.61691E+18,-432.1722368,-0.124817635,0.009325462,-0.116002168,1
1.61691E+18,-432.1622197,0.295305135,-0.025557051,0.010122166,1
1.61691E+18,-432.1522019,0.435752885,0.184865569,0.419613359,1
1.61691E+18,-432.1421848,0.234098679,0.287134103,0.652888154,1
1.61691E+18,-432.132167,0.080486326,0.341810281,0.709954734,1
1.61691E+18,-432.1221497,-0.129892454,0.631051586,0.768705322,1
1.61691E+18,-432.1121318,-0.245333189,0.894345379,0.976459599,1
1.61691E+18,-432.102115,-0.149968443,0.969662778,1.314731184,1
1.61691E+18,-432.0920969,0.002352116,0.949382791,1.555124871,1
1.61691E+18,-432.0820798,0.189967276,0.805533708,1.51851422,1
1.61691E+18,-432.0720618,0.560060818,0.582771247,1.043938267,1
1.61691E+18,-432.0620449,1.020271268,0.874881969,0.610288199,1
1.61691E+18,-432.0520266,1.00125794,1.018077557,0.339203313,1
1.61691E+18,-432.04201,0.886234553,0.706451987,0.086442896,1
1.61691E+18,-432.0319917,1.009020391,0.425247858,-0.185793205,1
1.61691E+18,-432.0219749,1.211669454,0.227632698,-0.560462384,1
1.61691E+18,-432.011957,1.497453896,0.076121117,-0.87587098,1
1.61691E+18,-432.0019397,1.658466296,0.001411036,-1.01981914,1
1.61691E+18,-431.9919219,1.676022995,0.00478022,-0.908778686,1
1.61691E+18,-431.9819048,1.458968975,0.009784896,-0.811848882,1
1.61691E+18,-431.971887,1.461723242,-0.026495793,-0.880772196,1
1.61691E+18,-431.9618696,1.576448522,-0.228014975,-1.259309741,1
1.61691E+18,-431.9518518,2.137764893,-0.35733226,-1.413168178,1
1.61691E+18,-431.9418347,2.649137375,-0.020324995,-1.144042025,1
1.61691E+18,-431.9318167,2.517161685,0.688635175,-0.548756164,1
1.61691E+18,-431.9218,1.506302388,0.664580346,-0.230890238,1
1.61691E+18,-431.9117817,0.142426942,-0.154024441,0.027202187,1
1.61691E+18,-431.9017649,-0.756892719,-0.777528095,0.528424155,1
1.61691E+18,-431.8917468,-1.130583408,-1.338725808,0.766876645,1
1.61691E+18,-431.8817297,-0.251720845,-1.746498799,1.129155129,1
1.61691E+18,-431.8717119,1.059081183,-1.64723763,1.572893752,1
1.61691E+18,-431.8616948,1.807072803,-1.121145133,1.85174635,1
1.61691E+18,-431.851678,1.456806244,-0.459945077,1.666807423,1
1.61691E+18,-431.8416597,0.74217212,-0.059622402,1.144275249,1
1.61691E+18,-431.8316428,0.119691378,0.588798836,0.689562227,1
1.61691E+18,-431.8216248,-0.082024788,1.19295014,0.21610125,1
1.61691E+18,-431.8116079,0.829264712,1.67000768,0.152042911,1
1.61691E+18,-431.8015898,1.954365305,2.148120283,0.473021124,1
1.61691E+18,-431.7915728,2.69503871,2.40601777,0.694405867,1
1.61691E+18,-431.7815547,3.090772889,2.236200717,0.069968439,1
1.61691E+18,-431.7715378,3.098080582,1.777887625,-1.175794715,1
1.61691E+18,-431.76152,2.961550297,2.102821005,-1.469212429,1
1.61691E+18,-431.7515027,2.579955702,2.14556826,-1.28264444,1
1.61691E+18,-431.7414849,2.013600753,1.431560159,-1.305672848,1
1.61691E+18,-431.7314678,1.330258424,0.761343853,-1.36607851,1
1.61691E+18,-431.7214497,0.756281309,0.449545264,-1.151626488,1
1.61691E+18,-431.7114329,0.373996979,0.229107446,-0.860416514,1
1.61691E+18,-431.7014148,-0.106180739,0.306849442,-0.713131318,1
1.61691E+18,-431.6913979,-0.587801057,0.722823276,-0.553619094,1
1.61691E+18,-431.6813799,-0.663956076,1.119722991,-0.013849662,1
1.61691E+18,-431.6713628,-0.845150848,1.440339093,0.512730911,1
1.61691E+18,-431.6613447,-0.832511147,1.40524323,0.647658437,1
1.61691E+18,-431.6513279,-0.542798717,1.065554179,0.878690422,1
1.61691E+18,-431.6413098,-0.154599026,0.284898892,1.473297944,1
1.61691E+18,-431.6312927,-0.232528653,-0.941580009,1.827235885,1
1.61691E+18,-431.6212747,-0.59425301,-1.732708759,1.622506509,1
1.61691E+18,-431.6112578,-0.195209268,-2.096782894,1.76553054,1
1.61691E+18,-431.60124,0.177121823,-2.285588141,2.30877554,1
1.61691E+18,-431.5912229,-0.293988792,-2.366213875,2.575916656,1
1.61691E+18,-431.5812048,-0.564344194,-2.293750404,2.537235043,1
1.61691E+18,-431.5711877,-0.43184711,-2.127890565,2.439504152,1
1.61691E+18,-431.5611699,-0.490903695,-1.67297296,2.210505135,1
1.61691E+18,-431.5511526,-0.404993006,-1.194011924,1.875703856,1
1.61691E+18,-431.541135,0.123497785,-0.950189432,1.405451904,1
1.61691E+18,-431.5311179,0.970713164,-0.60208648,1.005651499,1
1.61691E+18,-431.5210999,1.223282735,-0.376308178,0.607702274,1
1.61691E+18,-431.5110828,1.313567986,0.201862881,0.422236986,1
1.61691E+18,-431.5010647,1.15443307,0.429409654,0.319279885,1
1.61691E+18,-431.4910479,0.905052651,0.449200104,0.427419357,1
1.61691E+18,-431.4810298,0.430374115,0.199139009,0.584640548,1
1.61691E+18,-431.4710129,0.261964006,-0.053723407,0.59061553,1
1.61691E+18,-431.4609946,0.412581269,-0.231029354,0.543773115,1
1.61691E+18,-431.4509778,0.164781397,-0.164229608,0.569790769,1
1.61691E+18,-431.4409609,-0.346400531,-0.180622525,0.645504766,1
1.61691E+18,-431.4309429,-0.922082112,-0.348793564,0.834765063,1
1.61691E+18,-431.4209258,-1.718555146,-0.481537316,1.149095216,1
1.61691E+18,-431.4109077,-2.212036582,-0.495991958,1.492940218,1
1.61691E+18,-431.4008909,-2.683752762,-0.429054849,1.715399605,1
1.61691E+18,-431.3908726,-2.983102788,-0.29713235,1.738081684,1
1.61691E+18,-431.380856,-3.347076385,-0.084005148,1.771585602,1
1.61691E+18,-431.3708379,-4.033535385,0.063966568,1.999506177,1
1.61691E+18,-431.3608208,-5.050374341,0.356131067,2.138299146,1
1.61691E+18,-431.350803,-5.819116487,0.506639901,2.172714333,1
1.61691E+18,-431.3407856,-5.498489864,-0.064190148,2.597233877,1
1.61691E+18,-431.3307678,-4.27690575,-2.012329126,3.331275297,1
1.61691E+18,-431.3207507,-4.483952756,-2.426758799,2.247914536,1
1.61691E+18,-431.3107329,1.109050791,-2.64891818,-0.093043025,1
1.61691E+18,-431.3007158,12.58730831,-4.720099307,-0.591002484,1
1.61691E+18,-431.2906978,15.54302391,-4.758616377,0.151858787,1
1.61691E+18,-431.2806809,12.49559799,-2.966125642,1.025528166,1
1.61691E+18,-431.2706628,9.439951362,-2.074149622,0.426722607,1
1.61691E+18,-431.2606465,8.658046951,-2.246133498,0.022354455,1
1.61691E+18,-431.2506282,8.564005562,-2.04244647,-1.261876961,1
1.61691E+18,-431.2406113,6.497803684,0.112277741,-3.612001579,1
1.61691E+18,-431.230593,5.754641385,3.363966145,-3.98566012,1
1.61691E+18,-431.2205764,5.288744706,5.054985634,-2.980508095,1
1.61691E+18,-431.2105586,3.457083405,5.072935717,-2.307880052,1
1.61691E+18,-431.2005413,1.772817482,4.424872498,-1.612144982,1
1.61691E+18,-431.1905234,1.067442185,3.727862586,-0.865230052,1
1.61691E+18,-431.1805061,-0.043761985,3.048875529,0.129658061,1
1.61691E+18,-431.1704883,-0.96552261,2.471709555,1.126098372,1
1.61691E+18,-431.1604712,-0.63399933,1.496206672,1.636453201,1
1.61691E+18,-431.1504534,-1.987739167,0.613799422,1.760232141,1
1.61691E+18,-431.1404365,-4.883909521,-0.308568521,2.152581938,1
1.61691E+18,-431.1304182,-5.885092642,-1.034051664,2.335931257,1
1.61691E+18,-431.1204014,-5.900016655,-1.255976213,2.277238246,1
1.61691E+18,-431.1103831,-5.993246727,-1.435856979,2.579405375,1
1.61691E+18,-431.1003665,-5.520301883,-1.88589178,3.162041305,1
1.61691E+18,-431.0903484,-4.756418283,-2.091892638,3.590134615,1
1.61691E+18,-431.0803313,-4.716396069,-2.10848736,3.909529651,1
1.61691E+18,-431.0703132,-4.863987846,-2.309720711,3.98885044,1
1.61691E+18,-431.0602961,-3.652904083,-4.25703376,4.401257522,1
1.61691E+18,-431.0502786,-3.12772987,-5.066744461,3.258084681,1
1.61691E+18,-431.0402612,2.611588858,-5.381008563,3.286045286,1
1.61691E+18,-431.0302434,3.53980845,-4.273165395,3.553658111,1
1.61691E+18,-431.0202263,2.197802305,-2.178058909,2.439151393,1
1.61691E+18,-431.0102083,1.653427717,1.436817349,0.58813745,1
1.61691E+18,-431.0001914,0.608088643,4.174382364,-1.15704676,1
1.61691E+18,-430.9901743,1.094530098,4.617828727,-1.446242764,1
1.61691E+18,-430.9801565,2.260713227,3.883055193,-1.027882328,1
1.61691E+18,-430.9701392,1.755644229,3.016433687,-2.177017584,1
1.61691E+18,-430.9601213,2.642692437,1.066457265,-2.134360053,1
1.61691E+18,-430.9501042,2.668988908,-0.970760803,-0.89385555,1
1.61691E+18,-430.9400864,1.449381647,-2.527987615,0.236878665,1
1.61691E+18,-430.9300693,1.674991899,-3.709583125,1.970208186,1
1.61691E+18,-430.9200513,1.218318975,-3.746038878,3.012913404,1
1.61691E+18,-430.9100344,1.062698205,-3.238378402,3.641485448,1
1.61691E+18,-430.9000161,1.669539478,-2.458013623,4.675269109,1
1.61691E+18,-430.8899995,2.075449014,-1.26508774,5.491766693,1
1.61691E+18,-430.8799814,2.254716033,0.065818918,6.38700756,1
1.61691E+18,-430.8699644,2.378441781,1.194075345,7.169201894,1
1.61691E+18,-430.8599463,2.250374204,2.175363679,7.543896791,1
1.61691E+18,-430.8499292,2.309610821,3.165815855,7.569258612,1
1.61691E+18,-430.8399111,1.666385398,3.881231193,7.310399586,1
1.61691E+18,-430.8298943,0.772069245,4.222966655,6.343325655,1
1.61691E+18,-430.8198765,0.814561648,3.876011997,4.895645551,1
1.61691E+18,-430.8098594,0.970756419,3.155026458,3.338189314,1
1.61691E+18,-430.7998413,0.498508325,2.116433351,2.035382377,1
1.61691E+18,-430.7898242,-0.462280827,0.980470296,1.071490583,1
1.61691E+18,-430.7798062,-1.358366912,-0.235847276,0.596217004,1
1.61691E+18,-430.7697893,-1.704345419,-1.277763682,0.310472309,1
1.61691E+18,-430.7597715,-1.792333499,-1.954260091,-0.06736907,1
1.61691E+18,-430.7497544,-1.817907501,-2.343439441,-0.276986219,1
1.61691E+18,-430.7397363,-1.876192516,-2.546764211,-0.341769949,1
1.61691E+18,-430.7297192,-1.336762983,-2.551084997,-0.687221217,1
1.61691E+18,-430.7197014,0.141917239,-2.353286297,-1.470402223,1
1.61691E+18,-430.7096843,0.606640198,-1.91611653,-2.147934405,1
1.61691E+18,-430.6996663,0.820059661,-1.388006264,-2.542455701,1
1.61691E+18,-430.6896494,1.528172859,-0.835179489,-2.849664039,1
1.61691E+18,-430.6796311,1.917603554,-0.156239194,-2.84546308,1
1.61691E+18,-430.6696145,1.827410657,0.320011706,-2.333001634,1
1.61691E+18,-430.6595962,1.698046611,0.485282348,-1.5013246,1
1.61691E+18,-430.6495793,1.65987967,0.268784208,-0.962329951,1
1.61691E+18,-430.6395623,1.511868206,-0.100279991,-0.754918788,1
1.61691E+18,-430.6295442,1.584922921,-0.337107802,-0.644357642,1
1.61691E+18,-430.6195273,1.761226413,-0.654258274,-0.54999009,1
1.61691E+18,-430.6095093,2.066254485,-0.802056972,-0.472957704,1
1.61691E+18,-430.5994924,2.270901444,-0.718190355,-0.504812978,1
1.61691E+18,-430.5894741,2.305803246,-0.435825951,-0.548215482,1
1.61691E+18,-430.5794573,1.997313635,-0.020470541,-0.496983307,1
1.61691E+18,-430.5694392,1.69136085,0.4101707,-0.298822203,1
1.61691E+18,-430.5594224,1.420749426,0.801290663,-0.004697218,1
1.61691E+18,-430.5494045,1.270901395,0.980261329,0.335076589,1
1.61691E+18,-430.5393872,1.218171675,0.964474562,0.624620676,1
1.61691E+18,-430.5293694,1.080170733,0.863846196,0.702467886,1
1.61691E+18,-430.5193521,0.868453398,0.6466893,0.656022361,1
1.61691E+18,-430.5093342,0.688874245,0.506445547,0.657878802,1
1.61691E+18,-430.4993174,0.528769023,0.384656904,0.596612725,1
1.61691E+18,-430.4892993,0.606487053,0.24021044,0.492874995,1
1.61691E+18,-430.4792825,0.729378104,0.044418987,0.488614123,1
1.61691E+18,-430.4692642,0.577167435,-0.090432551,0.562261835,1
1.61691E+18,-430.4592473,0.223380885,-0.214945065,0.537948647,1
1.61691E+18,-430.4492295,0.111923082,-0.409003995,0.516228398,1
1.61691E+18,-430.4392124,0.110425537,-0.592115414,0.521227229,1
1.61691E+18,-430.4291943,0.198991125,-0.645341977,0.525776563,1
1.61691E+18,-430.4191772,0.399244817,-0.552316487,0.535580164,1
1.61691E+18,-430.4091594,0.480445429,-0.413687184,0.55119742,1
1.61691E+18,-430.3991421,0.553524694,-0.257708687,0.615273294,1
1.61691E+18,-430.3891245,0.59872811,-0.133814596,0.70743866,1
1.61691E+18,-430.3791072,0.569621258,-0.018736849,0.807977302,1
1.61691E+18,-430.3690894,0.473495464,0.203595988,0.847217717,1
1.61691E+18,-430.3590723,0.275021056,0.550532526,0.845316268,1
1.61691E+18,-430.3490542,0.257243407,0.815822462,0.77959701,1
1.61691E+18,-430.3390376,0.318460385,0.910191183,0.588266045,1
1.61691E+18,-430.3290193,0.401934787,0.880830649,0.41661973,1
1.61691E+18,-430.3190024,0.223898772,0.693059421,0.236028478,1
1.61691E+18,-430.3089844,-0.097570732,0.405993707,0.106138654,1
1.61691E+18,-430.2989673,-0.33594928,0.155866854,0.091958445,1
1.61691E+18,-430.2889504,-0.32525136,-0.057347443,0.178436413,1
1.61691E+18,-430.2789324,-0.2261749,-0.267698166,0.247041455,1
1.61691E+18,-430.2689155,-0.075937577,-0.269253579,0.26943595,1
1.61691E+18,-430.258897,0.099181674,-0.133784786,0.32952743,1
1.61691E+18,-430.2488799,0.23183541,0.158093882,0.30465807,1
1.61691E+18,-430.2388618,0.22852234,0.421330977,0.120659931,1
1.61691E+18,-430.228845,0.311515096,0.517031823,0.049582362,1
1.61691E+18,-430.2188271,0.406828404,0.539564558,0.044291562,1
1.61691E+18,-430.2088098,0.672694679,0.572065728,0.11918489,1
1.61691E+18,-430.198792,0.912735607,0.553754411,0.275686827,1
1.61691E+18,-430.1887747,0.861760622,0.356966349,0.278370659,1
1.61691E+18,-430.1787568,0.631487054,0.108418289,0.199794843,1
1.61691E+18,-430.16874,0.409911173,-0.045115153,0.278976808,1
1.61691E+18,-430.1587219,0.328330622,-0.006207038,0.369283102,1
1.61691E+18,-430.1487051,0.335980844,0.057269701,0.382667192,1
1.61691E+18,-430.1386868,0.369504344,0.265578105,0.365564374,1
1.61691E+18,-430.1286699,0.425492188,0.48290159,0.44350803,1
1.61691E+18,-430.1186519,0.492909774,0.593168137,0.521861728,1
1.61691E+18,-430.108635,0.638178661,0.741322809,0.469664215,1
1.61691E+18,-430.0986169,0.761031134,0.844134364,0.294302388,1
1.61691E+18,-430.0885999,0.976199487,0.908531141,0.196445824,1
1.61691E+18,-430.0785818,0.944341875,0.810773947,0.233456289,1
1.61691E+18,-430.0685647,0.644014528,0.653932695,0.202920866,1
1.61691E+18,-430.0585466,0.2073229,0.50226154,0.083756142,1
1.61691E+18,-430.04853,-0.084985976,0.212982241,-0.040655836,1
1.61691E+18,-430.038512,-0.240317992,-0.038001522,0.023929742,1
1.61691E+18,-430.0284949,-0.463966588,-0.180833537,0.036201486,1
1.61691E+18,-430.0184768,-0.619422523,-0.348413625,-0.064885729,1
1.61691E+18,-430.00846,-0.568263998,-0.379127327,-0.134910575,1
1.61691E+18,-429.9984421,-0.418303738,-0.457723894,-0.291754457,1
1.61691E+18,-429.9884248,-0.215390471,-0.510143233,-0.559313506,1
1.61691E+18,-429.9784077,0.112929629,-0.467547369,-0.750699709,1
1.61691E+18,-429.9683899,0.297336933,-0.421643696,-0.972104034,1
1.61691E+18,-429.958373,0.326898543,-0.443218984,-1.175582241,1
1.61691E+18,-429.948355,0.274705414,-0.514054269,-1.307145259,1
1.61691E+18,-429.9383379,-0.025779753,-0.495232079,-1.397955995,1
1.61691E+18,-429.9283201,-0.291001885,-0.489927543,-1.543396732,1
1.61691E+18,-429.918303,-0.571640196,-0.404936307,-1.673280418,1
1.61691E+18,-429.9082849,-0.610086539,-0.340609673,-1.696663048,1
1.61691E+18,-429.8982681,-0.343214887,-0.299472191,-1.577784739,1
1.61691E+18,-429.88825,-0.17172201,-0.36955812,-1.494669234,1
1.61691E+18,-429.8782329,-0.068310735,-0.493995231,-1.581093718,1
1.61691E+18,-429.8682148,0.24107787,-0.507421699,-1.624060168,1
1.61691E+18,-429.8581978,0.522656093,-0.524173512,-1.722277089,1
1.61691E+18,-429.8481797,0.697612847,-0.572591213,-1.976710992,1
1.61691E+18,-429.8381631,0.815340232,-0.586260258,-2.275183651,1
1.61691E+18,-429.8281448,0.709740507,-0.493910475,-2.562081023,1
1.61691E+18,-429.8181279,0.372729735,-0.38577451,-2.863030009,1
1.61691E+18,-429.8081099,-0.025439562,-0.301231018,-3.14506562,1
1.61691E+18,-429.7980928,-0.397913276,-0.297013692,-3.37351431,1
1.61691E+18,-429.788075,-0.579182867,-0.357543857,-3.465728776,1
1.61691E+18,-429.7780579,-0.620999563,-0.471396446,-3.398135249,1
1.61691E+18,-429.76804,-0.527589458,-0.601010083,-3.136308898,1
1.61691E+18,-429.7580227,-0.593892945,-0.624915859,-2.877819582,1
1.61691E+18,-429.7480049,-0.702602326,-0.676677611,-2.661412627,1
1.61691E+18,-429.7379878,-0.61442603,-0.739994775,-2.426529228,1
1.61691E+18,-429.72797,-0.418468573,-0.640299306,-2.139639747,1
1.61691E+18,-429.7179531,-0.45425651,-0.516945314,-2.001411134,1
1.61691E+18,-429.7079348,-0.520028082,-0.422678884,-1.942232676,1
1.61691E+18,-429.697918,-0.47420975,-0.241955237,-1.705177193,1
1.61691E+18,-429.6878997,-0.596718523,-0.083251699,-1.46435359,1
1.61691E+18,-429.6778831,-0.707216541,0.016544308,-1.335886493,1
1.61691E+18,-429.667865,-0.710835901,0.122687053,-1.278245328,1
1.61691E+18,-429.6578479,-0.675408029,0.242673615,-1.248223115,1
1.61691E+18,-429.6478308,-0.620584552,0.427014868,-1.228689562,1
1.61691E+18,-429.6378127,-0.532451511,0.593745061,-1.222228549,1
1.61691E+18,-429.6277961,-0.413800581,0.738047441,-1.241240708,1
1.61691E+18,-429.6177778,-0.332424613,0.893630801,-1.269407941,1
1.61691E+18,-429.607761,-0.134401456,0.978675229,-1.2502403,1
1.61691E+18,-429.5977429,-0.060002341,1.006413715,-1.259370824,1
1.61691E+18,-429.5877258,-0.216995568,1.009262383,-1.421822024,1
1.61691E+18,-429.577708,-0.355578694,0.973319255,-1.639687945,1
1.61691E+18,-429.5676909,-0.590083031,0.891485898,-1.737185028,1
1.61691E+18,-429.5576731,-0.913596023,0.697552933,-1.733081392,1
1.61691E+18,-429.5476558,-1.138337675,0.55428428,-1.693399954,1
1.61691E+18,-429.5376379,-1.225479368,0.485043863,-1.597353363,1
1.61691E+18,-429.5276208,-1.158217265,0.489866461,-1.519297187,1
1.61691E+18,-429.5176028,-1.021822589,0.533527616,-1.559462316,1
1.61691E+18,-429.5075862,-0.815056154,0.612188188,-1.637352781,1
1.61691E+18,-429.4975679,-0.642210693,0.59952569,-1.627043276,1
1.61691E+18,-429.487551,-0.765472331,0.771181064,-1.477704947,1
1.61691E+18,-429.477533,-0.799835204,0.924924934,-1.294246322,1
1.61691E+18,-429.4675159,-0.893238295,0.865311592,-1.166077915,1
1.61691E+18,-429.4574978,-1.031871689,0.676400547,-1.137912144,1
1.61691E+18,-429.447481,-1.12811088,0.769676797,-1.124602872,1
1.61691E+18,-429.4374629,-0.801482387,0.81922438,-1.060860468,1
1.61691E+18,-429.4274458,-0.644504357,0.885479059,-0.947876186,1
1.61691E+18,-429.4174277,-0.628159956,1.093432658,-0.809822345,1
1.61691E+18,-429.4074106,-0.632008448,1.328642805,-0.763938546,1
1.61691E+18,-429.3973931,-0.610237346,1.614392176,-0.79090897,1
1.61691E+18,-429.387376,-0.60820204,1.796269669,-0.798698309,1
1.61691E+18,-429.3773579,-0.442140541,1.895479693,-0.760509156,1
1.61691E+18,-429.3673408,-0.49581251,1.901350338,-0.723281833,1
1.61691E+18,-429.3573228,-0.547675968,1.878104487,-0.648932695,1
1.61691E+18,-429.3473062,-0.699881961,1.663511596,-0.604789602,1
1.61691E+18,-429.3372881,-0.565346065,1.564751362,-0.398536961,1
1.61691E+18,-429.327271,-0.867352158,1.144185232,-0.397644396,1
1.61691E+18,-429.3172529,-0.89745036,1.043674355,-0.353466816,1
1.61691E+18,-429.3072358,-0.937732101,0.741470693,-0.268212838,1
1.61691E+18,-429.297219,-0.920149683,0.234832692,-0.311844182,1
1.61691E+18,-429.2872009,-0.875254894,0.227587982,-0.300609963,1
1.61691E+18,-429.2771829,-0.942084451,-0.130709908,-0.379971962,1
1.61691E+18,-429.267166,-0.376156203,0.029727907,-0.42860389,1
1.61691E+18,-429.2571462,-0.632913288,-0.004314941,-0.654524231,1
1.61691E+18,-429.2471284,-0.549270544,0.421742042,-0.808659731,1
1.61691E+18,-429.2371111,-0.603430004,0.477392179,-0.730496587,1
1.61691E+18,-429.2270933,-0.558006808,0.177487734,-0.884371098,1
1.61691E+18,-429.2170762,-0.497463199,0.487715128,-0.76805358,1
1.61691E+18,-429.2070583,-0.757910956,0.697408849,-0.498632243,1
1.61691E+18,-429.1970413,-0.628663814,0.568500291,-0.043778644,1
1.61691E+18,-429.1870232,-0.603592501,0.248797505,0.277170928,1
1.61691E+18,-429.1770061,-0.382783512,0.126327601,0.129204472,1
1.61691E+18,-429.166988,-0.624772067,0.278246886,0.004208265,1
1.61691E+18,-429.1569714,-1.274504388,0.406552656,0.374960855,1
1.61691E+18,-429.1469531,-1.17427525,0.277075358,0.824815331,1
1.61691E+18,-429.1369363,-0.816093096,0.213587075,0.95833036,1
1.61691E+18,-429.1269182,-0.251294144,0.344419587,0.735859283,1
1.61691E+18,-429.1169011,0.157964703,0.665241586,0.411057712,1
1.61691E+18,-429.1068833,-0.734109225,0.643527621,0.469784042,1
1.61691E+18,-429.0968662,-0.685320351,0.58732175,0.640319765,1
1.61691E+18,-429.0868484,-0.550849922,0.551802108,0.312757789,1
1.61691E+18,-429.0768311,-1.237310091,0.235840627,-0.242067173,1
1.61691E+18,-429.0668132,-1.214255378,-0.160775595,-0.624274931,1
1.61691E+18,-429.0567959,-0.312526319,-0.666027184,-0.476386217,1
1.61691E+18,-429.0467781,0.110088853,-0.658769687,-0.226162333,1
1.61691E+18,-429.0367615,-0.719997697,-0.669286843,-0.274892169,1
1.61691E+18,-429.0267432,-1.287721597,-1.074520306,-0.174973705,1
1.61691E+18,-429.0167263,-1.122318269,-1.637911145,-0.137567519,1
1.61691E+18,-429.006708,-0.781836606,-1.316097066,-0.331903804,1
1.61691E+18,-428.9966912,-0.989628292,-1.007394543,-0.051322775,1
1.61691E+18,-428.9866731,-1.248267538,-1.177656125,0.296250307,1
1.61691E+18,-428.9766563,-1.292732118,-1.362829152,0.285880888,1
1.61691E+18,-428.9666382,-1.288947924,-1.580696243,0.231133107,1
1.61691E+18,-428.9566211,-1.306876379,-1.55406338,0.067380469,1
1.61691E+18,-428.9466033,-1.121635547,-1.325753075,-0.054982759,1
1.61691E+18,-428.9365859,-1.034332527,-1.178260521,0.087246322,1
1.61691E+18,-428.9265684,-0.983783074,-1.040059672,0.132628017,1
1.61691E+18,-428.9165513,-0.894164177,-0.903742738,-0.078680738,1
1.61691E+18,-428.9065332,-0.658801762,-0.792967656,-0.345685077,1
1.61691E+18,-428.8965161,-0.255294611,-0.677289021,-0.348725467,1
1.61691E+18,-428.886498,-0.243371534,-0.552602464,-0.268498961,1
1.61691E+18,-428.8764814,-0.623159956,-0.415187944,-0.126871061,1
1.61691E+18,-428.8664634,-0.677996292,-0.32673137,0.107596744,1
1.61691E+18,-428.8564463,-0.54788172,-0.295013751,0.200902512,1
1.61691E+18,-428.8464282,-0.437989266,-0.347258317,0.142710143,1
1.61691E+18,-428.8364111,-0.561220509,-0.427189055,0.122619248,1
1.61691E+18,-428.8263931,-0.917787045,-0.555854306,0.159796594,1
1.61691E+18,-428.8163762,-1.102928508,-0.788924811,0.349876975,1
1.61691E+18,-428.8063582,-0.870166047,-1.069798392,0.529534746,1
1.61691E+18,-428.7963413,-0.524865586,-1.280495153,0.570904868,1
1.61691E+18,-428.786323,-0.289562792,-1.339642046,0.532679474,1
1.61691E+18,-428.7763062,-0.13388357,-1.234407355,0.489336007,1
1.61691E+18,-428.7662881,-0.104948567,-1.03380821,0.493682512,1
1.61691E+18,-428.7562712,0.1450456,-0.63045888,0.523819876,1
1.61691E+18,-428.7462534,0.797278505,-0.204249776,0.535280012,1
1.61691E+18,-428.7362361,1.070771621,0.079797175,0.509881952,1
1.61691E+18,-428.7262183,1.037156936,0.340448053,0.478866051,1
1.61691E+18,-428.7162012,0.758987645,0.54407882,0.472222375,1
1.61691E+18,-428.7061833,0.376923095,0.639211511,0.501191865,1
1.61691E+18,-428.6961663,0.336231019,0.714224374,0.557644989,1
1.61691E+18,-428.6861482,0.738233611,0.632710459,0.581748333,1
1.61691E+18,-428.6761311,1.210710838,0.543496052,0.498072271,1
1.61691E+18,-428.666113,1.055848777,0.42074967,0.536572975,1
1.61691E+18,-428.6560964,0.49051791,0.390319168,0.59025488,1
1.61691E+18,-428.6460781,0.190779761,0.520799359,0.581212911,1
1.61691E+18,-428.6360613,0.538349337,0.762497699,0.441633176,1
1.61691E+18,-428.6260432,1.009447092,1.163958439,0.13683599,1
1.61691E+18,-428.6160261,0.964269395,1.535344943,-0.085872111,1
1.61691E+18,-428.6060083,0.667969404,1.713102141,-0.094656306,1
1.61691E+18,-428.5959912,0.597741437,1.7720313,-0.023156419,1
1.61691E+18,-428.5859734,0.695085374,1.685527321,-0.059146016,1
1.61691E+18,-428.5759561,0.494433038,1.382941966,-0.105148474,1
1.61691E+18,-428.5659382,0.108177466,0.929357071,-0.127824416,1
1.61691E+18,-428.5559209,-0.096317517,0.434033222,-0.104299163,1
1.61691E+18,-428.5459031,-0.310674553,-0.020738837,-0.051187166,1
1.61691E+18,-428.5358865,-0.504625931,-0.358425316,-0.012770634,1
1.61691E+18,-428.5258682,-0.509497336,-0.579396802,0.014368133,1
1.61691E+18,-428.5158513,-0.420213956,-0.686814389,0.10854513,1
1.61691E+18,-428.5058333,-0.412741428,-0.732970576,0.14230127,1
1.61691E+18,-428.4958162,-0.329466932,-0.741338591,0.175119251,1
1.61691E+18,-428.4857981,-0.201752406,-0.663107351,0.22354046,1
1.61691E+18,-428.4757813,-0.147451492,-0.468105003,0.282488323,1
1.61691E+18,-428.4657632,-0.040017538,-0.234278711,0.365707874,1
1.61691E+18,-428.4557461,-0.018735096,-0.002710428,0.362627443,1
1.61691E+18,-428.4457283,-0.154954415,0.288177475,0.277344531,1
1.61691E+18,-428.4357109,-0.138633395,0.538779545,0.222076233,1
1.61691E+18,-428.4256943,0.125858084,0.659842211,0.175574009,1
1.61691E+18,-428.4156763,0.35119478,0.839531255,0.024622985,1
1.61691E+18,-428.4056582,0.257830267,0.959267056,-0.169538821,1
1.61691E+18,-428.3956411,-0.101235684,1.036002506,-0.334584421,1
1.61691E+18,-428.385623,0.007843115,0.919374022,-0.406198874,1
1.61691E+18,-428.3756064,0.452539185,0.627413521,-0.321527956,1
1.61691E+18,-428.3655884,0.656623834,0.319879604,-0.151607443,1
1.61691E+18,-428.3555713,0.530602083,0.127560797,-0.066683426,1
1.61691E+18,-428.3455542,0.399735816,0.088681323,0.002964987,1
1.61691E+18,-428.3355361,0.41805707,0.066304656,0.151532624,1
1.61691E+18,-428.3255181,0.666614482,-0.01843056,0.350007031,1
1.61691E+18,-428.3155012,0.92911391,-0.059660396,0.509199814,1
1.61691E+18,-428.3054832,1.001913774,0.120014034,0.622310645,1
1.61691E+18,-428.2954663,0.89359836,0.564467528,0.592748451,1
1.61691E+18,-428.285448,0.855499223,1.001577089,0.460633644,1
1.61691E+18,-428.2754312,0.932469066,1.130464166,0.388822792,1
1.61691E+18,-428.2654131,0.883687207,1.041553125,0.354752765,1
1.61691E+18,-428.2553994,0.807559076,0.901957608,0.283028422,1
1.61691E+18,-428.2453813,0.851127,0.807631557,0.241342366,1
1.61691E+18,-428.2353645,0.838642781,0.73528879,0.235294026,1
1.61691E+18,-428.2253464,0.8038006,0.584821165,0.292557297,1
1.61691E+18,-428.2153293,0.733758511,0.4025725,0.409133174,1
1.61691E+18,-428.2053115,0.734174691,0.289157718,0.604741086,1
1.61691E+18,-428.1952942,0.793016172,0.192552616,0.739969349,1
1.61691E+18,-428.1852764,0.876557209,0.255982009,0.79460081,1
1.61691E+18,-428.1752595,0.93131522,0.424220269,0.784212103,1
1.61691E+18,-428.1652415,0.966954688,0.583668488,0.670343439,1
1.61691E+18,-428.1552244,0.914609584,0.589665098,0.533365411,1
1.61691E+18,-428.1452063,0.842962398,0.477727402,0.423618503,1
1.61691E+18,-428.1351895,0.663447542,0.403462143,0.289218508,1
1.61691E+18,-428.1251716,0.395911873,0.390086528,0.105578097,1
1.61691E+18,-428.1151545,0.369003993,0.498111434,0.232401227,1
1.61691E+18,-428.1051365,0.157525142,0.485801988,0.20944413,1
1.61691E+18,-428.0951194,-0.166303492,0.112889297,-0.147061324,1
1.61691E+18,-428.0851013,0.006208792,0.004258826,0.218770761,1
1.61691E+18,-428.0750845,-0.260021055,-0.021958734,0.446095416,1
1.61691E+18,-428.0650664,-0.361171399,-0.296782806,0.311842428,1
1.61691E+18,-428.0550496,-0.154001644,-0.453586648,0.286725523,1
1.61691E+18,-428.0450315,-0.310945772,-0.371134575,-0.086738665,1
1.61691E+18,-428.0350144,-0.169825821,-0.174178755,-0.186455761,1
1.61691E+18,-428.0249963,-0.025951603,0.012148118,0.059240709,1
1.61691E+18,-428.0149795,-0.039539399,0.021136312,-0.07715572,1
1.61691E+18,-428.0049617,0.163475575,-0.004196867,-0.169043146,1
1.61691E+18,-427.9949443,0.404879608,0.014233108,-0.150168642,1
1.61691E+18,-427.9849265,0.552672461,0.156906718,-0.090686818,1
1.61691E+18,-427.9749094,0.583226589,0.314880188,-0.07778642,1
1.61691E+18,-427.9648914,0.51373512,0.433420643,-0.210516728,1
1.61691E+18,-427.9548745,0.479949755,0.476748913,-0.363569108,1
1.61691E+18,-427.9448564,0.626225188,0.488607693,-0.386808822,1
1.61691E+18,-427.9348396,0.786841282,0.5012585,-0.449906498,1
1.61691E+18,-427.9248213,0.846110633,0.426335069,-0.725338766,1
1.61691E+18,-427.9148044,0.948556277,0.229193371,-0.933872503,1
1.61691E+18,-427.9047861,1.062463227,-0.031907881,-0.935136824,1
1.61691E+18,-427.8947695,1.054917049,-0.267700504,-0.765322401,1
1.61691E+18,-427.8847515,0.794457603,-0.484369909,-0.522810407,1
1.61691E+18,-427.8747344,0.41754386,-0.725033353,-0.287095525,1
1.61691E+18,-427.8647166,0.151050978,-0.852024241,0.083075758,1
1.61691E+18,-427.8546992,0.012534487,-0.773677849,0.454079108,1
1.61691E+18,-427.8446816,-0.047216509,-0.581695726,0.669825553,1
1.61691E+18,-427.8346643,-0.005277064,-0.402949517,0.727409142,1
1.61691E+18,-427.8246465,0.206826056,-0.282696998,0.67558134,1
1.61691E+18,-427.8146294,0.579476297,-0.098340547,0.539613657,1
1.61691E+18,-427.8046113,0.939063642,0.16065175,0.300991072,1
1.61691E+18,-427.7945947,1.240943479,0.360675725,0.059053662,1
1.61691E+18,-427.7845764,1.350287651,0.366695716,-0.127568688,1
1.61691E+18,-427.7745596,1.243167,0.196947636,-0.20099019,1
1.61691E+18,-427.7645415,1.137908636,0.068681907,-0.162834939,1
1.61691E+18,-427.7545244,1.021743094,0.028298458,-0.088572017,1
1.61691E+18,-427.7445063,0.799853909,0.005671616,-0.150548581,1
1.61691E+18,-427.7344895,0.551564207,0.022633272,-0.138335289,1
1.61691E+18,-427.7244714,0.286209974,0.133031921,0.030385201,1
1.61691E+18,-427.7144543,-0.085146135,0.186346163,0.26451486,1
1.61691E+18,-427.7044365,-0.329269364,0.222325823,0.506687539,1
1.61691E+18,-427.6944194,-0.159093999,0.253173966,0.677844901,1
1.61691E+18,-427.6844014,0.304305603,0.310722484,0.714943044,1
1.61691E+18,-427.6743845,0.750812522,0.400132121,0.68077394,1
1.61691E+18,-427.6643665,0.963054758,0.457357399,0.527145806,1
1.61691E+18,-427.6543494,0.98501057,0.371301164,0.312412337,1
1.61691E+18,-427.6443315,0.862831466,0.206782217,0.1730366,1
1.61691E+18,-427.6343145,0.581739565,0.008697686,0.138742116,1
1.61691E+18,-427.6242966,0.168296712,-0.173221308,0.139745155,1
1.61691E+18,-427.6142795,-0.15313889,-0.345040349,0.088481417,1
1.61691E+18,-427.6042615,-0.305302797,-0.471914332,-0.019498189,1
1.61691E+18,-427.5942444,-0.243079273,-0.49671618,-0.118294956,1
1.61691E+18,-427.5842263,-0.260628958,-0.409257093,-0.152386026,1
1.61691E+18,-427.5742092,-0.690287618,-0.413463312,-0.212208626,1
1.61691E+18,-427.5641914,-1.003711763,-0.466513934,-0.193131585,1
1.61691E+18,-427.5541746,-1.070965682,-0.425966235,-0.054779053,1
1.61691E+18,-427.5441565,-0.895386997,-0.420527844,0.043224517,1
1.61691E+18,-427.5341394,-0.852573107,-0.368377093,0.109758598,1
1.61691E+18,-427.5241213,-0.795893188,-0.22260844,0.103934422,1
1.61691E+18,-427.5141045,-0.460557656,-0.083695059,-0.026899697,1
1.61691E+18,-427.5040867,-0.168735103,0.062317924,-0.233484054,1
1.61691E+18,-427.4940693,-0.003830956,0.184444713,-0.430137968,1
1.61691E+18,-427.4840515,0.216315185,0.203064658,-0.538907263,1
1.61691E+18,-427.4740344,0.047988078,0.14720044,-0.52513885,1
1.61691E+18,-427.4640164,-0.491730209,0.132172674,-0.422168012,1
1.61691E+18,-427.4539995,-0.76673256,-0.002440379,-0.33076837,1
1.61691E+18,-427.4439814,-0.896236892,-0.067205404,-0.326977453,1
1.61691E+18,-427.4339646,-0.818161134,-0.11105156,-0.357923796,1
1.61691E+18,-427.4239463,-0.777783531,-0.337112771,-0.264988907,1
1.61691E+18,-427.4139294,-0.896845964,-0.336700098,0.007906243,1
1.61691E+18,-427.4039114,-0.77875033,-0.321584654,0.268993467,1
1.61691E+18,-427.3938945,-0.381447295,-0.405900768,0.52001873,1
1.61691E+18,-427.3838765,-0.20842297,-0.578657674,0.548154691,1
1.61691E+18,-427.3738584,0.053007952,-0.480830629,0.590938771,1
1.61691E+18,-427.3638416,-0.150728322,-0.310457988,0.466747159,1
1.61691E+18,-427.3538235,0.085668697,-0.221411631,0.429574781,1
1.61691E+18,-427.3438066,0.109286889,-0.359397083,0.406288014,1
1.61691E+18,-427.3337886,0.156017076,-0.206606861,0.44395402,1
1.61691E+18,-427.3237715,-0.055474634,-0.031087797,0.522376691,1
1.61691E+18,-427.3137534,0.018064064,-0.011788637,0.880926802,1
1.61691E+18,-427.3037363,0.141816701,-0.12610826,1.258110595,1
1.61691E+18,-427.2937183,-0.092553196,0.290061681,1.234353287,1
1.61691E+18,-427.2837014,0.322725057,0.192084999,1.158446398,1
1.61691E+18,-427.2736836,1.378867264,0.142084996,1.244891632,1
1.61691E+18,-427.2636665,0.632789369,-0.122073305,0.930946971,1
1.61691E+18,-427.2536479,0.576155043,0.143802906,0.818498403,1
1.61691E+18,-427.2436311,0.77527827,0.289093421,0.924138752,1
1.61691E+18,-427.2336133,0.494623592,-0.185178873,0.787678025,1
1.61691E+18,-427.2235962,0.552415271,-0.113318336,0.865154356,1
1.61691E+18,-427.2135784,0.387180285,-0.19586744,1.126058916,1
1.61691E+18,-427.203561,0.207809222,-0.050637716,1.29807874,1
1.61691E+18,-427.1935432,0.119669166,0.078448683,1.264524553,1
1.61691E+18,-427.1835259,0.487128852,0.071740125,1.145205223,1
1.61691E+18,-427.1735081,0.794144299,-0.087056352,1.267302494,1
1.61691E+18,-427.1634912,0.608772534,-0.208959269,1.362907478,1
1.61691E+18,-427.1534731,0.185599729,-0.191581287,1.444524854,1
1.61691E+18,-427.1434563,-0.064644614,-0.296188932,1.715361318,1
1.61691E+18,-427.133438,0.057787003,-0.594485358,1.952049429,1
1.61691E+18,-427.1234211,0.725888509,-0.922758404,2.100988237,1
1.61691E+18,-427.1134033,0.468029015,-0.90996322,1.977483146,1
1.61691E+18,-427.1033862,-0.437114821,-0.706344727,1.768615939,1
1.61691E+18,-427.0933682,-0.639286915,-0.862234377,1.775227466,1
1.61691E+18,-427.0833511,-0.425076009,-1.239492988,1.959550891,1
1.61691E+18,-427.0733333,-0.608347002,-1.226064913,1.898749216,1
1.61691E+18,-427.0633159,-0.531934793,-1.022458695,1.683913456,1
1.61691E+18,-427.0532983,-0.550323852,-0.947854705,1.524191973,1
1.61691E+18,-427.043281,-0.861322231,-0.886525353,1.411203015,1
1.61691E+18,-427.0332632,-0.782534525,-0.883324804,1.345065532,1
1.61691E+18,-427.0232461,-0.496450808,-1.040465038,1.271559566,1
1.61691E+18,-427.013228,-0.626152708,-1.198304361,1.255330316,1
1.61691E+18,-427.0032114,-0.989586207,-1.257841422,1.365506555,1
1.61691E+18,-426.9931934,-1.030806691,-1.495816942,1.408082253,1
1.61691E+18,-426.9831763,-0.680641838,-1.867606913,1.408240658,1
1.61691E+18,-426.9731582,-0.333110842,-2.155509662,1.410159059,1
1.61691E+18,-426.9631401,-0.494922867,-2.118519364,1.287840839,1
1.61691E+18,-426.953123,-0.359636445,-1.963595198,1.154304475,1
1.61691E+18,-426.9431052,-0.110566992,-1.822742081,1.083153841,1
1.61691E+18,-426.9330881,-0.14791794,-1.661173509,1.069329606,1
1.61691E+18,-426.9230703,0.201765266,-1.581376042,1.061671492,1
1.61691E+18,-426.913053,0.673233608,-1.558208809,0.932418797,1
1.61691E+18,-426.9030352,0.833536398,-1.500788301,0.812584795,1
1.61691E+18,-426.8930181,0.575865121,-1.523821094,0.905171894,1
1.61691E+18,-426.8830002,0.464264694,-1.705122833,0.996088428,1
