time,seconds_elapsed,z,y,x,label
1.61615E+18,-381.3344893,0.07336042,-0.060558441,-0.024789025,3
1.61615E+18,-381.3245562,-0.150799049,-0.159523622,-0.003345374,3
1.61615E+18,-381.314623,-0.270941093,-0.191131644,0.010830296,3
1.61615E+18,-381.3046902,-0.263507729,-0.153810725,0.020646893,3
1.61615E+18,-381.2947573,-0.121775783,-0.07449147,0.008278775,3
1.61615E+18,-381.2848242,0.060055533,0.000299494,-0.011924347,3
1.61615E+18,-381.2748911,0.223868377,0.076685619,-0.010968941,3
1.61615E+18,-381.2649583,0.276835412,0.114586456,-0.003129288,3
1.61615E+18,-381.2550254,0.214954418,0.111198568,0.004429699,3
1.61615E+18,-381.2450923,0.086960491,0.079115257,0.008760778,3
1.61615E+18,-381.2351592,-0.043213703,0.019606545,0.023723597,3
1.61615E+18,-381.2252261,-0.13182313,-0.023279607,0.015694534,3
1.61615E+18,-381.2152935,-0.128233581,-0.053354281,-0.002577239,3
1.61615E+18,-381.2053604,-0.078430563,-0.059640376,-0.040221189,3
1.61615E+18,-381.1954272,0.014755671,-0.065917118,-0.051660145,3
1.61615E+18,-381.1854941,0.105343119,-0.047674555,-0.054629918,3
1.61615E+18,-381.1755615,0.178142398,-0.011083193,-0.046977239,3
1.61615E+18,-381.1656284,0.187281982,0.020164105,-0.038895096,3
1.61615E+18,-381.1556953,0.143720489,0.055139996,-0.00333067,3
1.61615E+18,-381.1457622,0.059545245,0.089051837,0.025816679,3
1.61615E+18,-381.1358293,-0.030713703,0.089941771,0.05111369,3
1.61615E+18,-381.1258965,-0.07982757,0.073396368,0.059537756,3
1.61615E+18,-381.1159634,-0.07073767,0.055588105,0.040363675,3
1.61615E+18,-381.1060293,-0.037314124,0.010379501,0.00927144,3
1.61615E+18,-381.0960962,0.016393501,-0.030700551,-0.013533618,3
1.61615E+18,-381.0861631,0.063483753,-0.049042336,-0.035459052,3
1.61615E+18,-381.07623,0.096336222,-0.05438494,-0.055817794,3
1.61615E+18,-381.0662974,0.102260936,-0.053878378,-0.067345434,3
1.61615E+18,-381.0563643,0.093978845,-0.036087651,-0.056319511,3
1.61615E+18,-381.0464312,0.054157122,-0.037821124,-0.048015879,3
1.61615E+18,-381.036498,0.023933249,-0.031277912,-0.019207453,3
1.61615E+18,-381.0265654,0.008390812,-0.026949455,-0.00379383,3
1.61615E+18,-381.0166323,0.005137947,-0.029570451,0.017012711,3
1.61615E+18,-381.0066992,0.02912731,-0.029611294,0.030012724,3
1.61615E+18,-380.9967661,0.079155954,-0.022112317,0.028847297,3
1.61615E+18,-380.986833,0.104791331,-0.025901553,0.022043261,3
1.61615E+18,-380.9769004,0.087619831,-0.019463702,0.020024368,3
1.61615E+18,-380.9669673,0.074814126,-0.019480653,0.029257019,3
1.61615E+18,-380.9570342,0.012182021,-0.002725479,0.047309046,3
1.61615E+18,-380.9471011,-0.033992286,-0.003784122,0.051035191,3
1.61615E+18,-380.9371682,-0.034998248,-0.00103665,0.058334791,3
1.61615E+18,-380.9272354,-0.01822247,0.009822598,0.065427042,3
1.61615E+18,-380.9173022,0.001232172,0.030425314,0.041643961,3
1.61615E+18,-380.9073691,0.023975334,0.037093102,0.021227287,3
1.61615E+18,-380.8974363,0.048803486,0.035534036,0.006781874,3
1.61615E+18,-380.8875034,0.054330141,0.029781609,-0.019030023,3
1.61615E+18,-380.8775693,0.049689037,0.017175007,-0.045993443,3
1.61615E+18,-380.8676365,0.043411856,0.009172025,-0.062832148,3
1.61615E+18,-380.8577034,0.024119127,-0.008071224,-0.054109146,3
1.61615E+18,-380.8477703,0.02650573,-0.008021248,-0.053738897,3
1.61615E+18,-380.8378372,0.032906244,0.003682926,-0.047118081,3
1.61615E+18,-380.8279045,0.050820087,0.000611921,-0.054318825,3
1.61615E+18,-380.8179714,0.086719083,0.00538805,-0.062277072,3
1.61615E+18,-380.8080383,0.084635847,0.005071896,-0.056649359,3
1.61615E+18,-380.798105,0.063260466,-0.013692425,-0.050225591,3
1.61615E+18,-380.7881721,0.033041269,-0.025493119,-0.028447607,3
1.61615E+18,-380.7782393,0.003735095,-0.039451793,-0.00449806,3
1.61615E+18,-380.7683062,-0.005981997,-0.045465355,0.029260417,3
1.61615E+18,-380.758373,0.029355274,-0.042450975,0.055039631,3
1.61615E+18,-380.7484402,0.045700259,-0.036439825,0.061627842,3
1.61615E+18,-380.7385071,0.062504679,-0.029111967,0.07155327,3
1.61615E+18,-380.7285742,0.04202537,-0.025747605,0.093483006,3
1.61615E+18,-380.7186411,0.008806991,-0.010538564,0.086141064,3
1.61615E+18,-380.7087083,-0.012606968,0.003563538,0.067464749,3
1.61615E+18,-380.6987751,-0.00541618,0.003561857,0.065649444,3
1.61615E+18,-380.6888423,0.020038579,0.008213117,0.050945467,3
1.61615E+18,-380.6789092,0.062875851,0.015909663,0.032428252,3
1.61615E+18,-380.6689761,0.093472649,0.017842677,0.012991684,3
1.61615E+18,-380.6590432,0.093095632,0.001891074,0.012102512,3
1.61615E+18,-380.6491101,0.042590018,-0.0024764,0.002567432,3
1.61615E+18,-380.6391772,-1.69511E-05,-0.005371464,-0.008842464,3
1.61615E+18,-380.6292441,-0.035310967,-0.001924538,-0.024248525,3
1.61615E+18,-380.6193113,-0.044157122,0.006594795,-0.030958617,3
1.61615E+18,-380.6093772,-0.017258593,0.015516572,-0.035935901,3
1.61615E+18,-380.5994441,0.016188334,0.041362157,-0.031496357,3
1.61615E+18,-380.5895115,0.056080784,0.059461147,-0.051667753,3
1.61615E+18,-380.5795784,0.107981651,0.07102467,-0.063542991,3
1.61615E+18,-380.5696453,0.117272042,0.055515624,-0.063642204,3
1.61615E+18,-380.5597122,0.10308628,0.031818668,-0.058838275,3
1.61615E+18,-380.5497793,0.073056468,0.0035319,-0.059424295,3
1.61615E+18,-380.5398464,0.043324762,-0.015937135,-0.039296247,3
1.61615E+18,-380.5299133,0.013142975,-0.055487567,-0.031843198,3
1.61615E+18,-380.5199802,-0.002541501,-0.075349986,-0.010470449,3
1.61615E+18,-380.5100505,-0.029325463,-0.083290497,0.001553878,3
1.61615E+18,-380.5001174,-0.024298575,-0.086384225,0.008811149,3
1.61615E+18,-380.4901843,-0.01092939,-0.084888872,0.036519457,3
1.61615E+18,-380.4802512,0.017972879,-0.060744026,0.04489983,3
1.61615E+18,-380.4703186,0.052855976,-0.037869858,0.052916712,3
1.61615E+18,-380.4603855,0.080580434,-0.008248188,0.062019718,3
1.61615E+18,-380.4504524,0.111068511,0.025156945,0.0555418,3
1.61615E+18,-380.4405193,0.112445645,0.046770008,0.071564568,3
1.61615E+18,-380.4305867,0.081124624,0.043173079,0.079673959,3
1.61615E+18,-380.4206536,0.035620764,0.040636839,0.101721394,3
1.61615E+18,-380.4107205,-0.016609774,0.001985986,0.119334153,3
1.61615E+18,-380.4007874,-0.037774727,-0.031610286,0.111739689,3
1.61615E+18,-380.3908545,-0.043889995,-0.055893298,0.093044724,3
1.61615E+18,-380.3809216,-0.037955929,-0.054641252,0.069450489,3
1.61615E+18,-380.3709885,-0.015790859,-0.043060632,0.060533361,3
1.61615E+18,-380.3610554,0.012964696,-0.019841742,0.040193935,3
1.61615E+18,-380.3511223,0.069283964,0.000968334,0.025966252,3
1.61615E+18,-380.3411895,0.076415131,0.006173939,0.00963325,3
1.61615E+18,-380.3312566,0.071340897,0.012670827,-0.011862817,3
1.61615E+18,-380.3213235,0.051042205,-0.000549304,-0.039052958,3
1.61615E+18,-380.3113896,0.021481764,-0.007733298,-0.072813243,3
1.61615E+18,-380.3014565,0.018104396,-0.012114362,-0.082662465,3
1.61615E+18,-380.2915234,0.024871991,-0.035438466,-0.107693902,3
1.61615E+18,-380.2815906,0.051215808,-0.057602294,-0.119795898,3
1.61615E+18,-380.2716577,0.103122521,-0.062752882,-0.139286662,3
1.61615E+18,-380.2617246,0.129137837,-0.060941522,-0.148531268,3
1.61615E+18,-380.2517915,0.12403496,-0.052824778,-0.15539277,3
1.61615E+18,-380.2418584,0.083331194,-0.056406801,-0.154790018,3
1.61615E+18,-380.2319255,0.042345688,-0.048241322,-0.140008081,3
1.61615E+18,-380.2219924,0.025308044,-0.032067528,-0.116238772,3
1.61615E+18,-380.2120593,0.023857845,-0.015360578,-0.08044119,3
1.61615E+18,-380.2021262,0.030624855,0.001951646,-0.039617222,3
1.61615E+18,-380.1921934,0.024495559,0.031191622,0.013957497,3
1.61615E+18,-380.1822605,0.019682606,0.053901613,0.065057277,3
1.61615E+18,-380.1723274,0.006174889,0.082848014,0.105195473,3
1.61615E+18,-380.1623943,2.86416E-05,0.097241427,0.124011507,3
1.61615E+18,-380.1524614,-0.014577976,0.109126291,0.126252974,3
1.61615E+18,-380.1425286,-0.01282441,0.109859939,0.132199681,3
1.61615E+18,-380.1325955,-0.001042787,0.092509649,0.12681944,3
1.61615E+18,-380.1226624,0.001584054,0.06101824,0.12839511,3
1.61615E+18,-380.1127295,0.043528761,0.031259062,0.098190745,3
1.61615E+18,-380.1027964,0.083481416,0.005348814,0.069055763,3
1.61615E+18,-380.0928635,0.109327221,-0.021411183,0.03285983,3
1.61615E+18,-380.0829304,0.098805242,-0.028633389,0.005307011,3
1.61615E+18,-380.0729976,0.060465867,-0.025611411,0.003166273,3
1.61615E+18,-380.0630645,-0.01331424,-0.024944764,0.00672928,3
1.61615E+18,-380.0531313,-0.05428864,-0.023638431,0.014847477,3
1.61615E+18,-380.0431985,-0.067748425,-0.023058366,0.029245046,3
1.61615E+18,-380.0332654,-0.049831076,-0.032735929,0.031934678,3
1.61615E+18,-380.0233325,-0.002766542,-0.031936742,0.01813702,3
1.61615E+18,-380.0133994,0.035159576,-0.022471798,-0.013860741,3
1.61615E+18,-380.0034666,0.041368368,-0.030716114,-0.02750581,3
1.61615E+18,-379.9935334,0.082626261,-0.02189334,-0.04243375,3
1.61615E+18,-379.9836006,0.101342652,-0.010810513,-0.040188136,3
1.61615E+18,-379.9736675,0.109755091,0.004761808,-0.050163714,3
1.61615E+18,-379.9637334,0.072232877,0.034773792,-0.044253367,3
1.61615E+18,-379.9538005,0.029319033,0.04873159,-0.028819486,3
1.61615E+18,-379.9438677,0.013591888,0.053209612,-0.017325256,3
1.61615E+18,-379.9339346,0.011453706,0.061328329,-0.00357817,3
1.61615E+18,-379.9240015,-0.005075988,0.047968862,0.001053108,3
1.61615E+18,-379.9140686,-0.007097265,0.0440522,-0.022644469,3
1.61615E+18,-379.9041355,0.023531098,0.043505453,-0.037942549,3
1.61615E+18,-379.8942026,0.054789575,0.035753158,-0.04566506,3
1.61615E+18,-379.8842695,0.066292966,0.023196751,-0.05597504,3
1.61615E+18,-379.8743367,0.039344168,-0.001253653,-0.047717828,3
1.61615E+18,-379.8644036,0.019694296,-0.018959187,-0.036801215,3
1.61615E+18,-379.8544702,0.029179333,-0.039816316,-0.022328252,3
1.61615E+18,-379.8445374,0.045211015,-0.052333049,-0.004558841,3
1.61615E+18,-379.8346045,0.069455229,-0.045047495,0.015081468,3
1.61615E+18,-379.8246714,0.079944474,-0.042237771,0.037140667,3
1.61615E+18,-379.8147383,0.095139705,-0.031928266,0.059357084,3
1.61615E+18,-379.8048054,0.074041388,-0.018599633,0.076971633,3
1.61615E+18,-379.7948726,0.047750762,-0.0066097,0.081850134,3
1.61615E+18,-379.7849395,-0.005618424,-0.019366525,0.082612004,3
1.61615E+18,-379.7750063,-0.047183776,-0.023234964,0.087870893,3
1.61615E+18,-379.7650732,-0.057042322,-0.017770123,0.066021921,3
1.61615E+18,-379.7551406,-0.053604164,-0.007656141,0.040789627,3
1.61615E+18,-379.7452075,-0.009015666,-0.00577756,0.023290896,3
1.61615E+18,-379.7352744,0.056208209,0.009223098,0.001295355,3
1.61615E+18,-379.7253413,0.114227268,0.014057532,-0.013034308,3
1.61615E+18,-379.7154082,0.126133979,0.009757132,-0.015658949,3
1.61615E+18,-379.7054756,0.113832715,0.016374504,-0.00849335,3
1.61615E+18,-379.6955425,0.083751465,0.010807591,0.000818093,3
1.61615E+18,-379.6856094,0.062975219,0.001261617,0.010150487,3
1.61615E+18,-379.6756763,0.022604631,-0.01281893,0.007273562,3
1.61615E+18,-379.6657437,-0.014624738,-0.020355171,-0.001878745,3
1.61615E+18,-379.6558105,-0.022241642,-0.02600589,-0.005430318,3
1.61615E+18,-379.6458774,-0.015213351,-0.034466333,-0.022512367,3
1.61615E+18,-379.6359443,0.016913141,-0.038081601,-0.033475258,3
1.61615E+18,-379.6260115,0.023281507,-0.02595679,-0.036937381,3
1.61615E+18,-379.6160786,0.046269584,-0.018028555,-0.037651731,3
1.61615E+18,-379.6061455,0.071984455,-0.027162367,-0.039076339,3
1.61615E+18,-379.5962124,0.094744569,-0.025308263,-0.032462994,3
1.61615E+18,-379.5862795,0.087762455,-0.042118894,-0.046327241,3
1.61615E+18,-379.5763467,0.047420507,-0.054448141,-0.045423333,3
1.61615E+18,-379.5664136,0.010802549,-0.049643663,-0.011055346,3
1.61615E+18,-379.5564797,-0.005796704,-0.03794665,0.023032866,3
1.61615E+18,-379.5465466,-0.010019874,-0.037313978,0.057819289,3
1.61615E+18,-379.5366135,0.019833412,-0.012391499,0.090667994,3
1.61615E+18,-379.5266804,0.046545478,0.00148527,0.111268902,3
1.61615E+18,-379.5167478,0.033023733,0.016673633,0.104773211,3
1.61615E+18,-379.5068098,-0.000638298,0.026996436,0.09995601,3
1.61615E+18,-379.4968767,-0.026904374,0.024839477,0.094313666,3
1.61615E+18,-379.4869438,-0.033110242,0.044909255,0.088190891,3
1.61615E+18,-379.477011,-0.005977905,0.051068655,0.058006427,3
1.61615E+18,-379.4670779,0.042988662,0.070950947,0.031377571,3
1.61615E+18,-379.4571445,0.068559157,0.085022362,-0.003922336,3
1.61615E+18,-379.4472117,0.085567575,0.103749128,-0.040732253,3
1.61615E+18,-379.4372786,0.107241062,0.103229708,-0.0547872,3
1.61615E+18,-379.4273457,0.092283731,0.101044692,-0.052712887,3
1.61615E+18,-379.4174126,0.068240008,0.077138988,-0.044337383,3
1.61615E+18,-379.4074797,0.044516018,0.039614875,-0.036920384,3
1.61615E+18,-379.3975466,0.018400165,-0.005507511,-0.039565565,3
1.61615E+18,-379.3876135,-0.001759995,-0.033688846,-0.041320903,3
1.61615E+18,-379.3776807,-0.01971943,-0.067124959,-0.048945589,3
1.61615E+18,-379.3677478,-0.025316812,-0.079676909,-0.047762434,3
1.61615E+18,-379.3578147,-0.006261983,-0.083298607,-0.04171277,3
1.61615E+18,-379.3478816,0.006776947,-0.071888959,-0.036254641,3
1.61615E+18,-379.3379485,0.045863926,-0.066148443,-0.040716735,3
1.61615E+18,-379.3280156,0.086634327,-0.053318918,-0.037150229,3
1.61615E+18,-379.3180828,0.093191494,-0.050087242,-0.030187213,3
1.61615E+18,-379.3081497,0.098754389,-0.056017363,-0.014684048,3
1.61615E+18,-379.2982166,0.071734864,-0.065471932,0.010049913,3
1.61615E+18,-379.2882837,0.071671152,-0.073593644,0.023854932,3
1.61615E+18,-379.2783508,0.048403673,-0.080056776,0.020250697,3
1.61615E+18,-379.2684177,0.04695932,-0.080850118,0.039765399,3
1.61615E+18,-379.2584846,0.050116322,-0.058800418,0.023201491,3
1.61615E+18,-379.2485515,0.036480596,-0.036146103,0.013162501,3
1.61615E+18,-379.2386189,0.023292028,-0.01321509,0.022356181,3
1.61615E+18,-379.2286858,0.016101824,0.012599515,0.018455793,3
1.61615E+18,-379.2187527,0.019825813,0.022583003,0.016324975,3
1.61615E+18,-379.2088196,0.048703533,0.050717284,0.022519921,3
1.61615E+18,-379.198887,0.059957917,0.060911857,0.012953288,3
1.61615E+18,-379.1889539,0.07529168,0.069689403,0.013066794,3
1.61615E+18,-379.1790208,0.060256608,0.0670649,0.017646743,3
1.61615E+18,-379.1690876,0.011544892,0.06747823,0.014866803,3
1.61615E+18,-379.1591548,-0.043934419,0.057397346,0.024129931,3
1.61615E+18,-379.1492219,-0.049331309,0.046956324,0.025081839,3
1.61615E+18,-379.1392888,-0.048325347,0.049968365,0.026253043,3
1.61615E+18,-379.1293557,-0.007404139,0.050488663,0.024534475,3
1.61615E+18,-379.1194229,0.036968671,0.04215623,0.018929967,3
1.61615E+18,-379.1094897,0.071202949,0.02939641,0.001779367,3
1.61615E+18,-379.0995569,0.058321256,0.005546455,-0.008604655,3
1.61615E+18,-379.0896238,0.047253919,-0.013110461,-0.007598512,3
1.61615E+18,-379.0796907,0.020471126,-0.0253692,-0.012457961,3
1.61615E+18,-379.0697578,0.008027824,-0.041422509,-0.012976669,3
1.61615E+18,-379.059825,0.022950083,-0.047683688,0.00108195,3
1.61615E+18,-379.0498918,0.03335808,-0.036477892,-0.00686701,3
1.61615E+18,-379.0399587,0.043310149,-0.025206045,0.001580136,3
1.61615E+18,-379.0300259,0.056413961,-0.025936771,0.018207911,3
1.61615E+18,-379.0200928,0.067622168,-0.023592253,0.032660937,3
1.61615E+18,-379.0101599,0.095189974,-0.031070334,0.035341362,3
1.61615E+18,-379.0002268,0.09510405,-0.040530383,0.035368314,3
1.61615E+18,-378.9902937,0.084249478,-0.0533583,0.03351822,3
1.61615E+18,-378.9803606,0.049599605,-0.045713776,0.030676668,3
1.61615E+18,-378.9704275,0.000116904,-0.035926834,0.015361856,3
1.61615E+18,-378.9604946,-0.032017187,-0.020286417,0.016872937,3
1.61615E+18,-378.9505618,-0.063887658,0.0059394,0.019542631,3
1.61615E+18,-378.9406277,-0.05719196,0.035066272,0.030700651,3
1.61615E+18,-378.9306946,-0.024012744,0.077153455,0.021605153,3
1.61615E+18,-378.9207617,0.021868133,0.108379638,0.011114127,3
1.61615E+18,-378.9108289,0.079445293,0.097133217,-0.007528761,3
1.61615E+18,-378.9008958,0.12390695,0.072676456,-0.034885253,3
1.61615E+18,-378.8909626,0.117993342,0.010322584,-0.074936181,3
1.61615E+18,-378.8810298,0.08818331,-0.039878641,-0.109827096,3
1.61615E+18,-378.8710967,0.031300563,-0.083338501,-0.146340288,3
1.61615E+18,-378.8611638,-0.013215455,-0.132736373,-0.151564361,3
1.61615E+18,-378.8512307,-0.019825229,-0.141913805,-0.122676084,3
1.61615E+18,-378.8412979,0.016843583,-0.137233172,-0.081797738,3
1.61615E+18,-378.8313647,0.055106386,-0.106150929,-0.024056528,3
1.61615E+18,-378.8214316,0.071048636,-0.060698507,0.015527367,3
1.61615E+18,-378.8114988,0.076749478,-0.020673078,0.054826263,3
1.61615E+18,-378.8015657,0.067612232,0.008332067,0.076551316,3
1.61615E+18,-378.7916328,0.041385319,0.026053456,0.119906336,3
1.61615E+18,-378.7816997,0.016754151,0.039561245,0.127633843,3
1.61615E+18,-378.7717666,-0.020756372,0.038237449,0.127695529,3
1.61615E+18,-378.7618337,-0.048608256,0.035364378,0.099041234,3
1.61615E+18,-378.7519009,-0.037636195,0.034629342,0.079867327,3
1.61615E+18,-378.7419678,-0.014050737,0.040063788,0.038749102,3
1.61615E+18,-378.7320347,0.02639467,0.050662558,0.012090296,3
1.61615E+18,-378.7221018,0.071789225,0.052752808,-0.005403457,3
1.61615E+18,-378.7121689,0.093751466,0.047026613,-0.006377546,3
1.61615E+18,-378.7022358,0.095559977,0.047071402,-0.010882457,3
1.61615E+18,-378.6923027,0.058638067,0.03777933,0.002534323,3
1.61615E+18,-378.6823696,0.021864041,0.026361864,0.042434298,3
1.61615E+18,-378.672437,-0.001464227,0.001906418,0.038041824,3
1.61615E+18,-378.6625039,-0.001780454,-0.020352248,0.027149635,3
1.61615E+18,-378.6525708,0.021666473,-0.047694137,0.024955413,3
1.61615E+18,-378.6426377,0.052453825,-0.055184712,0.008412292,3
1.61615E+18,-378.6327051,0.09061726,-0.067731109,-0.011982516,3
1.61615E+18,-378.6227717,0.074781977,-0.054826107,-0.017316013,3
1.61615E+18,-378.6128386,0.041463645,-0.041109351,-0.022222198,3
1.61615E+18,-378.6029055,0.021904958,-0.020264643,-0.032487124,3
1.61615E+18,-378.5929727,-0.002462006,0.020073432,-0.020459006,3
1.61615E+18,-378.5830398,0.003831541,0.048196022,-0.020643608,3
1.61615E+18,-378.5731067,0.012209493,0.074049863,-0.034279286,3
1.61615E+18,-378.5631736,0.043641573,0.084738284,-0.034378618,3
1.61615E+18,-378.5532407,0.072731474,0.066494626,-0.043271014,3
1.61615E+18,-378.5433076,0.089149525,0.037683103,-0.042770709,3
1.61615E+18,-378.5333748,0.076854692,0.008988778,-0.034169387,3
1.61615E+18,-378.5234417,0.043151744,-0.033130847,-0.024274199,3
1.61615E+18,-378.5135139,0.004146598,-0.068797423,-0.034853268,3
1.61615E+18,-378.5035808,-0.024764439,-0.079525372,-0.038967152,3
1.61615E+18,-378.4936477,-0.017222937,-0.069385013,-0.047875156,3
1.61615E+18,-378.4837151,0.000761632,-0.067925316,-0.044833843,3
1.61615E+18,-378.473782,0.046291796,-0.046087797,-0.04959007,3
1.61615E+18,-378.4638489,0.070764558,-0.025926761,-0.028352938,3
1.61615E+18,-378.4539158,0.091848847,-0.020734453,-0.007197237,3
1.61615E+18,-378.4439832,0.104307347,-0.017483488,0.018602857,3
1.61615E+18,-378.43405,0.080295187,-0.022929552,0.037317394,3
1.61615E+18,-378.4241169,0.036840077,-0.040633624,0.045743295,3
1.61615E+18,-378.4141838,-0.003790624,-0.050951166,0.050615477,3
1.61615E+18,-378.404251,-0.03083879,-0.042763548,0.072470006,3
1.61615E+18,-378.3943179,-0.052837272,-0.02346702,0.091269842,3
1.61615E+18,-378.3843848,-0.041204117,0.00201207,0.093008776,3
1.61615E+18,-378.3744517,-0.01418167,0.021023499,0.111929074,3
1.61615E+18,-378.3645188,0.04187924,0.048552361,0.086436111,3
1.61615E+18,-378.3545857,0.096612116,0.071132149,0.076043786,3
1.61615E+18,-378.3446528,0.108134212,0.07624635,0.085877271,3
1.61615E+18,-378.3347197,0.09394845,0.092558822,0.081850984,3
1.61615E+18,-378.3247869,0.059901803,0.080074823,0.070632401,3
1.61615E+18,-378.3148538,0.025582185,0.052212052,0.05132452,3
1.61615E+18,-378.3049207,0.019402035,0.024130452,0.020272142,3
1.61615E+18,-378.2949878,-0.019992987,-0.01303966,-0.031881205,3
1.61615E+18,-378.2850549,-0.055377019,-0.050018561,-0.078513026,3
1.61615E+18,-378.2751218,-0.07377543,-0.074681658,-0.102076656,3
1.61615E+18,-378.2651887,-0.046305824,-0.097755952,-0.105440936,3
1.61615E+18,-378.2552559,0.02015373,-0.087442648,-0.109061007,3
1.61615E+18,-378.245323,0.112024205,-0.062356868,-0.097598369,3
1.61615E+18,-378.2353899,0.164844525,0.002035013,-0.076184181,3
1.61615E+18,-378.2254568,0.169834589,0.072879212,-0.065132799,3
1.61615E+18,-378.2155237,0.113562666,0.119956751,-0.039742648,3
1.61615E+18,-378.2055908,0.045904258,0.148980528,-0.022934748,3
1.61615E+18,-378.195658,-0.027336335,0.12777064,0.001081722,3
1.61615E+18,-378.1857249,-0.080343703,0.060266618,-0.005970069,3
1.61615E+18,-378.1757917,-0.13531974,-0.021088965,-0.016634818,3
1.61615E+18,-378.1658586,-0.10806933,-0.096121191,-0.03331098,3
1.61615E+18,-378.155926,-0.030389293,-0.151452033,-0.038424898,3
1.61615E+18,-378.1459929,0.053597735,-0.166424488,-0.035482296,3
1.61615E+18,-378.1360598,0.121184832,-0.134268185,-0.021642407,3
1.61615E+18,-378.1261267,0.16417817,-0.069477295,0.002422697,3
1.61615E+18,-378.1161941,0.188363933,0.007623188,0.060430248,3
1.61615E+18,-378.106261,0.176146256,0.093411274,0.093274405,3
1.61615E+18,-378.0963279,0.105858668,0.151796828,0.118992007,3
1.61615E+18,-378.0863948,0.020615503,0.172063663,0.130778526,3
1.61615E+18,-378.0764619,-0.085905429,0.119421548,0.11906783,3
1.61615E+18,-378.0665291,-0.180707865,0.067544865,0.100672854,3
1.61615E+18,-378.0565959,-0.217661339,-0.016558774,0.086077899,3
1.61615E+18,-378.0466628,-0.181584648,-0.089076752,0.048891055,3
1.61615E+18,-378.03673,-0.090762805,-0.141585742,0.011489729,3
1.61615E+18,-378.0267969,0.035641222,-0.169033794,-0.037764772,3
1.61615E+18,-378.016864,0.128882985,-0.142445062,-0.062402516,3
1.61615E+18,-378.0069309,0.177791685,-0.092240988,-0.061883634,3
1.61615E+18,-377.9969978,0.181261407,-0.006662673,-0.054056274,3
1.61615E+18,-377.9870649,0.134254741,0.072503145,-0.031930556,3
1.61615E+18,-377.9771321,0.077647303,0.1444423,0.002497607,3
1.61615E+18,-377.967199,0.051976271,0.18577092,0.0175117,3
1.61615E+18,-377.9572659,0.033280338,0.200591034,0.046578915,3
1.61615E+18,-377.947333,0.006855273,0.192123139,0.045617385,3
1.61615E+18,-377.9373997,-0.045924131,0.149235599,0.032521501,3
1.61615E+18,-377.9274668,-0.074954995,0.095826372,0.020357678,3
1.61615E+18,-377.9175337,-0.079851535,0.042417731,0.006361726,3
1.61615E+18,-377.9076008,-0.03308277,0.008114844,-0.003106825,3
1.61615E+18,-377.8976677,0.056252633,-0.014499212,-0.027457879,3
1.61615E+18,-377.8877346,0.143899937,-0.015747823,-0.051296618,3
1.61615E+18,-377.8778018,0.190274735,-0.009846125,-0.057521662,3
1.61615E+18,-377.8678689,0.174893041,-0.00782441,-0.07526966,3
1.61615E+18,-377.8579358,0.100017541,-0.010410992,-0.066227335,3
1.61615E+18,-377.8480027,0.007708675,-0.026234658,-0.061761661,3
1.61615E+18,-377.8380696,-0.034851533,-0.048644423,-0.053660817,3
1.61615E+18,-377.828137,-0.032204818,-0.09028905,-0.056238924,3
1.61615E+18,-377.8182039,0.010402736,-0.12109277,-0.044831929,3
1.61615E+18,-377.8082708,0.018244097,-0.148203479,-0.028322597,3
1.61615E+18,-377.7983376,0.00850947,-0.15638284,-0.0094033,3
1.61615E+18,-377.788405,0.005585107,-0.149691891,0.027392586,3
1.61615E+18,-377.7784719,0.015488661,-0.118155985,0.054108817,3
1.61615E+18,-377.7685388,0.034504327,-0.077174352,0.093261563,3
1.61615E+18,-377.7586057,0.067006082,-0.043965983,0.132078457,3
1.61615E+18,-377.7486729,0.082335753,-0.026016923,0.150296661,3
1.61615E+18,-377.73874,0.112823831,-0.005222776,0.146204862,3
1.61615E+18,-377.7288069,0.12583821,0.002179609,0.124675642,3
1.61615E+18,-377.7188738,0.103721656,-0.009143895,0.078232775,3
1.61615E+18,-377.7089407,0.060124506,-0.038573111,0.046708304,3
1.61615E+18,-377.6990081,0.011910803,-0.08490575,0.00176943,3
1.61615E+18,-377.689075,-0.025971477,-0.12988091,-0.038296678,3
1.61615E+18,-377.6791418,-0.061511577,-0.166331841,-0.06910584,3
1.61615E+18,-377.6692087,-0.075119246,-0.17143311,-0.092790959,3
1.61615E+18,-377.6592759,-0.048601242,-0.161203977,-0.123636527,3
1.61615E+18,-377.649343,0.022251579,-0.1118582,-0.148167093,3
1.61615E+18,-377.6394099,0.094841015,-0.027054084,-0.169191998,3
1.61615E+18,-377.6294768,0.181378311,0.069892817,-0.176485352,3
1.61615E+18,-377.6195439,0.239139596,0.146867262,-0.167623434,3
1.61615E+18,-377.6096108,0.230454769,0.206812685,-0.132878311,3
1.61615E+18,-377.599678,0.155310973,0.214707019,-0.097261492,3
1.61615E+18,-377.5897449,0.04688567,0.207982898,-0.039491167,3
1.61615E+18,-377.579812,-0.034259412,0.167033048,0.00346779,3
1.61615E+18,-377.5698789,-0.065590955,0.117281614,0.02618306,3
1.61615E+18,-377.5599458,-0.055717211,0.064211775,0.028445808,3
1.61615E+18,-377.5500129,-0.027571313,0.007403993,0.007618092,3
1.61615E+18,-377.5400801,0.019191607,-0.040242213,-0.021123516,3
1.61615E+18,-377.530147,0.058564417,-0.071231956,-0.038240518,3
1.61615E+18,-377.5202139,0.076852354,-0.079113284,-0.053230664,3
1.61615E+18,-377.51028,0.068239423,-0.083158249,-0.052241288,3
1.61615E+18,-377.5003472,0.081368954,-0.08500205,-0.041977102,3
1.61615E+18,-377.4904141,0.071057988,-0.082849183,-0.014067442,3
1.61615E+18,-377.480481,0.043729836,-0.089301647,0.005270762,3
1.61615E+18,-377.4705479,0.035889644,-0.084006975,0.017944466,3
1.61615E+18,-377.460615,0.02552724,-0.0886312,0.033137441,3
1.61615E+18,-377.4506821,0.044182256,-0.088223935,0.043617489,3
1.61615E+18,-377.440749,0.053712885,-0.073651877,0.044201883,3
1.61615E+18,-377.4308159,0.040191141,-0.060237538,0.047069904,3
1.61615E+18,-377.4208831,0.001080196,-0.030545872,0.07259297,3
1.61615E+18,-377.4109502,-0.022479543,0.012156448,0.081659891,3
1.61615E+18,-377.4010171,-0.033491351,0.05158055,0.074284001,3
1.61615E+18,-377.391084,-0.01445698,0.08402451,0.077495437,3
1.61615E+18,-377.3811511,0.007702245,0.116887792,0.058344336,3
1.61615E+18,-377.371218,0.047220016,0.129911524,0.037711297,3
1.61615E+18,-377.3612852,0.066852353,0.147411379,0.024349985,3
1.61615E+18,-377.3513521,0.085023385,0.153626016,-0.001029489,3
1.61615E+18,-377.3414192,0.087091423,0.149854973,-0.013274556,3
1.61615E+18,-377.3314871,0.054765609,0.147137238,-0.026999441,3
1.61615E+18,-377.321553,0.024368718,0.128596569,-0.028427542,3
1.61615E+18,-377.3116201,-0.015176526,0.084771456,-0.009783088,3
1.61615E+18,-377.301688,-0.034279871,0.042236602,-0.010368921,3
1.61615E+18,-377.2917551,-0.01079495,-0.00167524,-0.016634338,3
1.61615E+18,-377.2818223,0.038218379,-0.024054464,-0.025684079,3
1.61615E+18,-377.2718892,0.102179102,-0.050215399,-0.058613691,3
1.61615E+18,-377.2619561,0.11366145,-0.082241353,-0.070397761,3
1.61615E+18,-377.2520229,0.083435824,-0.10915391,-0.053644364,3
1.61615E+18,-377.2420901,0.029016251,-0.152856054,-0.025210607,3
1.61615E+18,-377.2321572,-0.041540802,-0.181644926,0.017075875,3
1.61615E+18,-377.2222241,-0.06315116,-0.182236024,0.060946864,3
1.61615E+18,-377.212291,-0.007893384,-0.172052119,0.08805709,3
1.61615E+18,-377.2023582,0.058534607,-0.135050422,0.075171798,3
1.61615E+18,-377.192425,0.099327805,-0.065269833,0.058101129,3
1.61615E+18,-377.1824922,0.098391401,0.005238339,0.041130403,3
1.61615E+18,-377.1725591,0.073572017,0.033329511,0.027522953,3
1.61615E+18,-377.1626262,0.043471477,0.060349109,0.017950521,3
1.61615E+18,-377.1526931,0.003587211,0.056483665,-0.005272826,3
1.61615E+18,-377.14276,-0.005000585,0.029598946,-0.018469695,3
1.61615E+18,-377.1328271,-0.004043722,0.013474179,-0.036457799,3
1.61615E+18,-377.1228943,-0.006608604,-0.003615852,-0.044676478,3
1.61615E+18,-377.1129612,-0.001219897,-0.001527137,-0.052403319,3
1.61615E+18,-377.1030281,0.016340894,0.009042627,-0.058923706,3
1.61615E+18,-377.0930952,0.044794835,0.044471083,-0.057417147,3
1.61615E+18,-377.0831624,0.065634209,0.081771544,-0.053853746,3
1.61615E+18,-377.0732292,0.047933133,0.086768402,-0.03033348,3
1.61615E+18,-377.0632961,0.031653029,0.091892613,-0.000656957,3
1.61615E+18,-377.053363,0.013331191,0.079530998,0.024640082,3
1.61615E+18,-377.0434302,-0.001827215,0.048960284,0.028497168,3
1.61615E+18,-377.0334973,0.005847557,0.01476685,0.029161514,3
1.61615E+18,-377.0235642,0.042668344,0.002019523,0.017837891,3
1.61615E+18,-377.0136311,0.077961192,-0.022365196,-0.000904,3
1.61615E+18,-377.003698,0.088124274,-0.042001478,-0.0119868,3
1.61615E+18,-376.9937651,0.063915131,-0.063519044,-0.01042735,3
1.61615E+18,-376.983832,-0.012324644,-0.106415206,0.010270899,3
1.61615E+18,-376.9738989,-0.080641224,-0.141899995,0.044233361,3
1.61615E+18,-376.9639658,-0.109971364,-0.157559848,0.080888906,3
1.61615E+18,-376.9540332,-0.087189623,-0.139432874,0.097305624,3
1.61615E+18,-376.9441001,-0.023226562,-0.107320338,0.097327059,3
1.61615E+18,-376.934167,0.055649407,-0.058897083,0.086783901,3
1.61615E+18,-376.9242339,0.121969845,-0.025920696,0.082016997,3
1.61615E+18,-376.914301,0.139897716,-0.006917451,0.061821446,3
1.61615E+18,-376.9043682,0.115769821,0.005051146,0.055127191,3
1.61615E+18,-376.8944351,0.087122988,0.018943843,0.053397381,3
1.61615E+18,-376.884502,0.029348844,0.024098303,0.047276459,3
1.61615E+18,-376.8745691,-0.002239303,0.030141821,0.032709792,3
1.61615E+18,-376.864636,-0.015665771,0.022913112,0.011665906,3
1.61615E+18,-376.8547031,-0.02425006,0.02497684,-0.019717239,3
1.61615E+18,-376.84477,-0.02918927,0.025000293,-0.037961909,3
1.61615E+18,-376.8348372,-0.023667876,0.025052974,-0.05239172,3
1.61615E+18,-376.8249041,0.005965046,0.024388299,-0.06784825,3
1.61615E+18,-376.8149712,0.083075174,0.044075069,-0.080748813,3
1.61615E+18,-376.8050381,0.15873218,0.053097457,-0.115983957,3
1.61615E+18,-376.7951052,0.189377493,0.04459997,-0.126078814,3
1.61615E+18,-376.7851721,0.167088505,0.043967006,-0.143720343,3
1.61615E+18,-376.775239,0.083162852,0.022512568,-0.157176657,3
1.61615E+18,-376.7653062,-0.019451719,-0.005444091,-0.136185143,3
1.61615E+18,-376.755373,-0.100970896,-0.027220819,-0.114944513,3
1.61615E+18,-376.7454402,-0.09812369,-0.035256899,-0.072992299,3
1.61615E+18,-376.7355071,-0.006451368,-0.026398689,-0.053372794,3
1.61615E+18,-376.725574,0.108205523,0.006934841,-0.001981563,3
1.61615E+18,-376.7156411,0.189020935,0.059323784,0.020117444,3
1.61615E+18,-376.7057083,0.221227507,0.086483886,0.024240171,3
1.61615E+18,-376.6957751,0.168818105,0.093135526,0.05782654,3
1.61615E+18,-376.685842,0.067616908,0.063533657,0.07036785,3
1.61615E+18,-376.6759089,-0.030157238,0.016701471,0.079658826,3
1.61615E+18,-376.6659763,-0.089690208,-0.027099239,0.098174178,3
1.61615E+18,-376.6560432,-0.111857616,-0.057954834,0.1079981,3
1.61615E+18,-376.6461111,-0.091941786,-0.08108568,0.114184771,3
1.61615E+18,-376.6361782,-0.049604866,-0.08344218,0.099589205,3
1.61615E+18,-376.6262451,-0.034494975,-0.063123176,0.101274546,3
1.61615E+18,-376.6163123,-0.009891864,-0.053571212,0.099583725,3
1.61615E+18,-376.6063792,0.042089083,-0.034521571,0.085368226,3
1.61615E+18,-376.596446,0.09669278,-0.032332901,0.078123926,3
1.61615E+18,-376.5865132,0.148722827,-0.022036037,0.051143802,3
1.61615E+18,-376.5765803,0.182020701,-0.019478023,0.016709444,3
1.61615E+18,-376.5666472,0.141198861,-0.027194369,0.007605242,3
1.61615E+18,-376.5567141,0.045646483,-0.004299012,0.008791218,3
1.61615E+18,-376.546781,-0.075245503,0.026133828,0.032749857,3
1.61615E+18,-376.5368481,-0.144317286,0.069055635,0.07446081,3
1.61615E+18,-376.5269153,-0.120461778,0.104695469,0.106141001,3
1.61615E+18,-376.5169822,-0.031454292,0.129241005,0.116120123,3
1.61615E+18,-376.5070493,0.094821141,0.128622215,0.088870662,3
1.61615E+18,-376.4971165,0.173458624,0.107052773,0.03738413,3
1.61615E+18,-376.4871836,0.160547705,0.06565233,-0.006744095,3
1.61615E+18,-376.4772505,0.074298577,0.012350582,-0.036983319,3
1.61615E+18,-376.4673174,-0.042454409,-0.044317938,-0.044533946,3
1.61615E+18,-376.4573843,-0.128631641,-0.09573884,-0.062560702,3
1.61615E+18,-376.4474517,-0.141201784,-0.127854665,-0.084774105,3
1.61615E+18,-376.4375186,-0.087092593,-0.131735525,-0.110296495,3
1.61615E+18,-376.4275854,-0.013218963,-0.093215094,-0.149587591,3
1.61615E+18,-376.4176523,0.068710548,-0.024386692,-0.16596003,3
1.61615E+18,-376.4077192,0.139063018,0.044189051,-0.178861506,3
1.61615E+18,-376.3977866,0.179955001,0.071551471,-0.153408738,3
1.61615E+18,-376.3878535,0.167297179,0.061454074,-0.113708925,3
1.61615E+18,-376.3779204,0.133349317,0.036790319,-0.091243091,3
1.61615E+18,-376.3679873,0.070415598,0.0220261,-0.072828551,3
1.61615E+18,-376.3580547,0.016433833,-0.00140183,-0.0585008,3
1.61615E+18,-376.3481216,-0.024633506,-0.024188612,-0.051111795,3
1.61615E+18,-376.3381885,-0.037837271,-0.041328766,-0.039273702,3
1.61615E+18,-376.3282554,0.020389293,-0.030244916,-0.015861883,3
1.61615E+18,-376.3183225,0.090252518,-0.012298048,-0.008996696,3
1.61615E+18,-376.3083896,0.152391871,0.032828868,0.032944914,3
1.61615E+18,-376.2984565,0.171537301,0.058523793,0.05654035,3
1.61615E+18,-376.2885234,0.123306646,0.0529476,0.079124774,3
1.61615E+18,-376.2785906,0.017846622,0.014476488,0.099231386,3
1.61615E+18,-376.2686572,-0.092087332,-0.033568946,0.10774587,3
1.61615E+18,-376.2587244,-0.133233581,-0.077589655,0.097725283,3
1.61615E+18,-376.2487913,-0.114030284,-0.105089948,0.059125878,3
1.61615E+18,-376.2388584,-0.042094344,-0.106915045,0.026282031,3
1.61615E+18,-376.2289253,0.045184711,-0.097413057,0.001326244,3
1.61615E+18,-376.2189924,0.103117845,-0.083738752,-0.02443897,3
1.61615E+18,-376.2090593,0.104682025,-0.077376816,-0.027884096,3
1.61615E+18,-376.1991265,0.067892802,-0.067200947,-0.008791817,3
1.61615E+18,-376.1891934,0.041233928,-0.065693538,-0.006310192,3
1.61615E+18,-376.1792615,0.025079496,-0.046732379,0.020332724,3
1.61615E+18,-376.1693274,0.013080431,-0.018622429,0.053794956,3
1.61615E+18,-376.1593953,0.007153963,0.027236601,0.09923925,3
1.61615E+18,-376.1494622,0.009253566,0.079159754,0.129390432,3
1.61615E+18,-376.1395293,0.021654782,0.134558912,0.15132331,3
1.61615E+18,-376.1295964,0.056394087,0.172210378,0.136649637,3
1.61615E+18,-376.1196633,0.0883423,0.182940227,0.115998817,3
1.61615E+18,-376.1097302,0.068598904,0.172412257,0.096197818,3
1.61615E+18,-376.0997974,0.021225743,0.142602371,0.059716035,3
1.61615E+18,-376.0898645,-0.046048634,0.100253907,0.031681525,3
1.61615E+18,-376.0799314,-0.092421094,0.068806191,-0.005278794,3
1.61615E+18,-376.0699983,-0.08562252,0.052798986,-0.044432897,3
1.61615E+18,-376.0600654,-0.02970248,0.063145681,-0.099545859,3
1.61615E+18,-376.0501323,0.037334582,0.082516809,-0.137065725,3
1.61615E+18,-376.0401995,0.098659696,0.096546065,-0.15635482,3
1.61615E+18,-376.0302664,0.095064302,0.123023226,-0.184649278,3
1.61615E+18,-376.0203335,0.046030514,0.111356973,-0.200386196,3
1.61615E+18,-376.0104004,-0.024944472,0.048766734,-0.19622725,3
1.61615E+18,-376.0004673,-0.064476856,-0.036309112,-0.161842969,3
1.61615E+18,-375.9905344,-0.055115154,-0.122598863,-0.113616735,3
1.61615E+18,-375.9806016,-0.012165654,-0.194228879,-0.052208596,3
1.61615E+18,-375.9706685,0.072766546,-0.238901768,-0.006241383,3
1.61615E+18,-375.9607354,0.142710435,-0.251027748,0.034979817,3
1.61615E+18,-375.9508022,0.182882871,-0.243848942,0.07586311,3
1.61615E+18,-375.9408696,0.164915252,-0.220263484,0.132742674,3
1.61615E+18,-375.9309365,0.117902157,-0.171192871,0.179991278,3
1.61615E+18,-375.9210034,0.030001171,-0.086820132,0.202211548,3
1.61615E+18,-375.9110703,-0.081190675,-0.010983897,0.238072021,3
1.61615E+18,-375.9011375,-0.15665362,0.060286711,0.249987153,3
1.61615E+18,-375.8912046,-0.190454183,0.104394806,0.2410274,3
1.61615E+18,-375.8812715,-0.101508071,0.132366005,0.200454147,3
1.61615E+18,-375.8713384,0.021201193,0.137993562,0.142383888,3
1.61615E+18,-375.8614053,0.158581373,0.116355439,0.058582492,3
1.61615E+18,-375.8514727,0.268043034,0.07705964,-0.040850335,3
1.61615E+18,-375.8415396,0.306530293,0.014125629,-0.102023136,3
1.61615E+18,-375.8316064,0.252964707,-0.059512804,-0.144612113,3
1.61615E+18,-375.8216733,0.123750883,-0.127181076,-0.160393574,3
1.61615E+18,-375.8117407,-0.013249942,-0.169994967,-0.177046237,3
1.61615E+18,-375.8018076,-0.120588619,-0.168782011,-0.178066557,3
1.61615E+18,-375.7918745,-0.138293787,-0.129384724,-0.167994751,3
1.61615E+18,-375.7819414,-0.083529932,-0.084964275,-0.130713315,3
1.61615E+18,-375.7720085,0.048573769,-0.046852279,-0.114026238,3
1.61615E+18,-375.7620757,0.169697226,-0.025574659,-0.095635225,3
1.61615E+18,-375.7521436,0.245929986,-0.035716699,-0.069163279,3
1.61615E+18,-375.7422104,0.236989724,-0.060185296,-0.052787304,3
1.61615E+18,-375.7322773,0.173797063,-0.094081355,-0.032166998,3
1.61615E+18,-375.7223445,0.069137249,-0.102137017,-0.014660074,3
1.61615E+18,-375.7124116,-0.011340894,-0.068648297,0.00399386,3
1.61615E+18,-375.7024785,-0.051785717,-0.027421091,0.052087577,3
1.61615E+18,-375.6925454,-0.056705638,0.004177651,0.097675206,3
1.61615E+18,-375.6826123,-0.049414896,0.013682561,0.156631006,3
1.61615E+18,-375.6726797,-0.078936759,0.021517931,0.184758528,3
1.61615E+18,-375.6627466,-0.090780341,0.005461773,0.201281282,3
1.61615E+18,-375.6528135,-0.07312135,0.016754516,0.190942861,3
1.61615E+18,-375.6428804,-0.042311786,0.025057504,0.161311967,3
1.61615E+18,-375.6329478,0.004925181,0.038666415,0.115948246,3
1.61615E+18,-375.6230144,0.054664487,0.076418492,0.075908926,3
1.61615E+18,-375.6130813,0.081805592,0.082987349,0.011116209,3
1.61615E+18,-375.6031482,0.076611531,0.080385277,-0.045139045,3
1.61615E+18,-375.5932153,0.039696051,0.073786755,-0.121000461,3
1.61615E+18,-375.5832825,0.013587796,0.075343849,-0.196180616,3
1.61615E+18,-375.5733494,0.054985974,0.071233491,-0.231333123,3
1.61615E+18,-375.5634163,0.110755208,0.062341013,-0.227863821,3
1.61615E+18,-375.5534834,0.148108494,0.049799365,-0.208306596,3
1.61615E+18,-375.5435503,0.126910808,0.03883863,-0.186963053,3
1.61615E+18,-375.5336174,0.049438861,0.02627952,-0.131954346,3
1.61615E+18,-375.5236843,-0.043124856,0.008695713,-0.065845313,3
1.61615E+18,-375.5137515,-0.097635029,0.014494389,0.007345999,3
1.61615E+18,-375.5038188,-0.08939444,0.01909012,0.084092324,3
1.61615E+18,-375.493886,-0.008843816,0.037451852,0.155394615,3
1.61615E+18,-375.4839529,0.087417587,0.049106342,0.206615592,3
1.61615E+18,-375.4740198,0.130713123,0.08102036,0.248510541,3
1.61615E+18,-375.4640869,0.103269236,0.089945936,0.253834165,3
1.61615E+18,-375.4541538,0.048235331,0.050320101,0.224408457,3
1.61615E+18,-375.4442209,-0.012859482,-0.012009879,0.182506658,3
1.61615E+18,-375.4342878,-0.072316464,-0.080952482,0.115294422,3
1.61615E+18,-375.424355,-0.087117142,-0.145615655,0.045264471,3
1.61615E+18,-375.4144219,-0.03995967,-0.181261115,-0.000513096,3
1.61615E+18,-375.40449,0.053927405,-0.210514097,-0.045757004,3
1.61615E+18,-375.3945569,0.160307466,-0.224666614,-0.070824225,3
1.61615E+18,-375.3846238,0.2210767,-0.219015311,-0.068721627,3
1.61615E+18,-375.3746909,0.204579154,-0.20175153,-0.078230236,3
1.61615E+18,-375.3647581,0.089723526,-0.170887166,-0.080126425,3
1.61615E+18,-375.354825,-0.078051208,-0.12099172,-0.072576275,3
1.61615E+18,-375.3448918,-0.203666131,-0.064464508,-0.056088236,3
1.61615E+18,-375.3349587,-0.23315,0.010607611,-0.067245042,3
1.61615E+18,-375.3250259,-0.166974523,0.103586997,-0.0983441,3
1.61615E+18,-375.315093,-0.008389643,0.153541406,-0.114042705,3
1.61615E+18,-375.3051599,0.178469146,0.18430399,-0.134756736,3
1.61615E+18,-375.2952268,0.297932561,0.212414743,-0.175451369,3
1.61615E+18,-375.2852939,0.354830506,0.217272705,-0.207777183,3
1.61615E+18,-375.2753606,0.326429172,0.201677076,-0.179101562,3
1.61615E+18,-375.2654277,0.217176186,0.179180655,-0.155040139,3
1.61615E+18,-375.2554946,0.052419339,0.137719641,-0.088511392,3
1.61615E+18,-375.2455618,-0.108532271,0.086771763,-0.00415489,3
1.61615E+18,-375.2356287,-0.185814833,0.026047464,0.067686219,3
1.61615E+18,-375.2256958,-0.188263979,-0.014244798,0.099089457,3
1.61615E+18,-375.2157627,-0.107483639,-0.0346517,0.123377264,3
1.61615E+18,-375.2058298,0.005736498,-0.028525837,0.089477058,3
1.61615E+18,-375.1958967,0.103713472,-0.019532164,0.060622546,3
1.61615E+18,-375.1859636,0.131442022,-0.002826017,0.052735117,3
1.61615E+18,-375.1760308,0.100901922,0.007302213,0.063809149,3
1.61615E+18,-375.1660979,0.022112463,-0.001504998,0.087683307,3
1.61615E+18,-375.1561648,-0.020730069,-0.042618075,0.125358674,3
1.61615E+18,-375.1462317,-0.0369336,-0.07976225,0.127263595,3
1.61615E+18,-375.1362986,-0.027156887,-0.110035369,0.13090059,3
1.61615E+18,-375.126366,-0.000372925,-0.142679455,0.135816456,3
1.61615E+18,-375.1164329,0.034293315,-0.156688911,0.11642939,3
1.61615E+18,-375.1064998,0.07282266,-0.156727927,0.130381389,3
1.61615E+18,-375.0965667,0.075135028,-0.144102693,0.119644507,3
1.61615E+18,-375.0866348,0.030191725,-0.133754098,0.116910588,3
1.61615E+18,-375.0767017,0.000837035,-0.126319345,0.129271893,3
1.61615E+18,-375.0667688,-0.01115034,-0.106315691,0.123059439,3
1.61615E+18,-375.0568357,-0.056232759,-0.093555651,0.091730007,3
1.61615E+18,-375.0469028,-0.026184827,-0.081691976,0.058168997,3
1.61615E+18,-375.0369697,0.02720248,-0.056275429,0.025894055,3
1.61615E+18,-375.0270369,0.060073653,-0.01582593,-0.018659647,3
1.61615E+18,-375.0171038,0.096824882,0.040338002,-0.0322303,3
1.61615E+18,-375.0071707,0.110544195,0.079330434,-0.041037263,3
1.61615E+18,-374.9972378,0.128794138,0.1112625,-0.026595344,3
1.61615E+18,-374.9873049,0.139595518,0.131548113,-0.023968229,3
1.61615E+18,-374.9773718,0.10852701,0.156134711,-0.021995403,3
1.61615E+18,-374.9674387,0.05100538,0.16264307,-0.031357115,3
1.61615E+18,-374.9575056,-0.006061492,0.14994192,-0.031611894,3
1.61615E+18,-374.947573,-0.061335051,0.125804674,-0.047393062,3
1.61615E+18,-374.9376399,-0.098831546,0.11304193,-0.098004319,3
1.61615E+18,-374.9277068,-0.07277999,0.083117186,-0.136992276,3
1.61615E+18,-374.9177737,-0.022848376,0.060422831,-0.169463308,3
1.61615E+18,-374.9078411,-0.002584756,0.02432802,-0.204518675,3
1.61615E+18,-374.897908,0.03275836,-0.015214959,-0.224905994,3
1.61615E+18,-374.8879749,0.058518824,-0.048992871,-0.213699815,3
1.61615E+18,-374.8780417,0.096245621,-0.075960738,-0.181824375,3
1.61615E+18,-374.8681086,0.09925357,-0.107910413,-0.134571707,3
1.61615E+18,-374.858176,0.100305125,-0.113941436,-0.08730239,3
1.61615E+18,-374.8482429,0.085364746,-0.122064903,-0.011275546,3
1.61615E+18,-374.8383098,0.071193013,-0.121506611,0.055341656,3
1.61615E+18,-374.8283767,0.048971244,-0.118568877,0.118900657,3
1.61615E+18,-374.8184438,0.025883798,-0.105794224,0.17396345,3
1.61615E+18,-374.808511,0.016153847,-0.087266342,0.193055963,3
1.61615E+18,-374.7985789,0.022153964,-0.071659973,0.19794589,3
1.61615E+18,-374.7886458,0.041339726,-0.053124345,0.187548579,3
1.61615E+18,-374.7787126,0.036436757,-0.018818171,0.172973398,3
1.61615E+18,-374.76878,0.013739187,-0.002128244,0.154597491,3
1.61615E+18,-374.7588469,-0.010295184,0.01576229,0.123181942,3
1.61615E+18,-374.7489138,-0.010220365,0.032418095,0.105684389,3
1.61615E+18,-374.7389807,-0.00566694,0.051178179,0.082945802,3
1.61615E+18,-374.7290481,0.004844517,0.065372563,0.051392393,3
1.61615E+18,-374.719115,0.017114216,0.07873824,0.032316288,3
1.61615E+18,-374.7091819,0.041181321,0.080845661,0.000846625,3
1.61615E+18,-374.6992488,0.035901334,0.083436993,-0.020719643,3
1.61615E+18,-374.6893159,0.036177229,0.072686028,-0.044831322,3
1.61615E+18,-374.6793831,0.025536008,0.052429348,-0.06578519,3
1.61615E+18,-374.66945,0.024617724,0.045590442,-0.052255499,3
1.61615E+18,-374.6595168,0.025474633,0.024261458,-0.066157649,3
1.61615E+18,-374.6495837,0.027796354,-0.003801511,-0.06254734,3
1.61615E+18,-374.6396506,0.017360885,-0.034762394,-0.049884687,3
1.61615E+18,-374.6297178,0.009758008,-0.051350467,-0.029899119,3
1.61615E+18,-374.6197847,0.012160393,-0.078683149,-0.005151588,3
1.61615E+18,-374.6098516,0.017256255,-0.076108988,0.014039668,3
1.61615E+18,-374.5999187,0.028799394,-0.046449324,0.019907875,3
1.61615E+18,-374.5899858,0.055591539,-0.011897505,0.016236324,3
1.61615E+18,-374.5800527,0.070419106,0.006750059,0.029076069,3
1.61615E+18,-374.5701196,0.077633859,0.020580212,0.031783818,3
1.61615E+18,-374.5601868,0.06183131,0.035694414,0.033566213,3
1.61615E+18,-374.5502537,0.017948914,0.031615401,0.036491793,3
1.61615E+18,-374.5403208,-0.001342062,0.031779798,0.038452777,3
1.61615E+18,-374.5303877,-0.010276479,0.028744741,0.037007647,3
1.61615E+18,-374.5204556,0.001292962,0.021250147,0.034951475,3
1.61615E+18,-374.5105227,0.024351182,-0.001506605,0.042681094,3
1.61615E+18,-374.5005859,0.036752983,0.000295549,0.039640023,3
1.61615E+18,-374.4906528,0.04523498,-0.01084668,0.02762129,3
1.61615E+18,-374.4807197,0.049352352,0.003118351,0.010729865,3
1.61615E+18,-374.4707871,0.033715807,0.016326354,-0.025018587,3
1.61615E+18,-374.460854,0.047587681,0.013467604,-0.053704172,3
1.61615E+18,-374.4509209,0.04593173,0.013762641,-0.072327643,3
1.61615E+18,-374.4409878,0.044295069,0.000111498,-0.090345713,3
1.61615E+18,-374.4310549,0.032203064,-0.008477175,-0.087202958,3
1.61615E+18,-374.4211221,0.04568097,-0.021042788,-0.096107601,3
1.61615E+18,-374.411189,0.034276364,-0.028616365,-0.081228861,3
1.61615E+18,-374.4012559,0.032259763,-0.040876273,-0.042404524,3
1.61615E+18,-374.391323,0.042932548,-0.046935939,-0.017629249,3
1.61615E+18,-374.3813901,0.042382513,-0.043705505,0.015547867,3
1.61615E+18,-374.371457,0.024620062,-0.029749826,0.055706224,3
1.61615E+18,-374.3615239,0.020505028,-0.016431349,0.107605384,3
1.61615E+18,-374.3515911,-0.010546528,0.005074746,0.150801369,3
1.61615E+18,-374.341658,0.004357611,0.016567177,0.169555662,3
1.61615E+18,-374.3317251,0.023144729,0.029840427,0.171267215,3
1.61615E+18,-374.321792,0.047034138,0.053751756,0.154333671,3
1.61615E+18,-374.3118589,0.051353171,0.060401496,0.130499882,3
1.61615E+18,-374.301926,0.049552843,0.055715604,0.095604145,3
1.61615E+18,-374.2919929,0.028166356,0.049440469,0.062428627,3
1.61615E+18,-374.2820601,0.028186815,0.050761342,0.017971269,3
1.61615E+18,-374.2721279,0.035240825,0.056448594,-0.011547403,3
1.61615E+18,-374.2621948,0.06249182,0.067342402,-0.071952124,3
1.61615E+18,-374.252262,0.063837974,0.063089493,-0.129468521,3
1.61615E+18,-374.2423291,0.051246203,0.048405208,-0.170848679,3
1.61615E+18,-374.232396,0.043740942,0.029526466,-0.209153659,3
1.61615E+18,-374.2224629,0.031311084,0.017116847,-0.234595541,3
1.61615E+18,-374.21253,0.038980596,-0.00378719,-0.252991047,3
1.61615E+18,-374.2025972,0.055485156,-0.017131021,-0.248812885,3
1.61615E+18,-374.1926641,0.083806995,-0.033792526,-0.214352031,3
1.61615E+18,-374.182731,0.092353874,-0.040112742,-0.172209337,3
1.61615E+18,-374.1727981,0.073946695,-0.049039925,-0.130620403,3
1.61615E+18,-374.162865,0.051345572,-0.040023456,-0.081402445,3
1.61615E+18,-374.1529321,0.021723172,-0.039355274,-0.009047776,3
1.61615E+18,-374.142999,-0.003266308,-0.045332887,0.041999368,3
1.61615E+18,-374.1330662,-0.023003274,-0.039607569,0.091530794,3
1.61615E+18,-374.1231331,-0.030450668,-0.043235331,0.133687061,3
1.61615E+18,-374.1132,-0.042089083,-0.032703488,0.161510577,3
1.61615E+18,-374.1032671,-0.012275544,-0.034625469,0.18188374,3
1.61615E+18,-374.093334,0.028605917,-0.027516295,0.186305301,3
1.61615E+18,-374.0834011,0.052731473,-0.009579291,0.168603713,3
1.61615E+18,-374.073468,0.073406012,0.013202669,0.147391204,3
1.61615E+18,-374.0635352,0.066430913,0.031683132,0.129743346,3
1.61615E+18,-374.0536021,0.043593643,0.026516032,0.094537365,3
1.61615E+18,-374.0436699,0.0328928,0.028172713,0.060779719,3
1.61615E+18,-374.0337371,0.005875614,0.018397096,0.042480325,3
1.61615E+18,-374.0238042,-0.001683423,-0.004459756,0.030460171,3
1.61615E+18,-374.0138711,-0.006264906,-0.019606106,0.006002583,3
1.61615E+18,-374.003938,0.005744681,-0.025741102,0.005012134,3
1.61615E+18,-373.9940051,0.01740297,-0.028690599,-0.011886559,3
1.61615E+18,-373.984072,0.02287994,-0.022246976,-0.006649279,3
1.61615E+18,-373.9741392,0.028476737,-0.002015943,0.000459092,3
1.61615E+18,-373.9642061,0.033173955,0.025198008,-0.003799506,3
1.61615E+18,-373.9542732,0.017687632,0.038131432,-0.001642146,3
1.61615E+18,-373.9443398,0.036358431,0.052611427,-0.001253895,3
1.61615E+18,-373.9344067,0.030810149,0.061078738,-0.007815647,3
1.61615E+18,-373.9244739,0.025127427,0.042945481,-0.012388065,3
1.61615E+18,-373.914541,0.026939445,0.026460648,-0.011617875,3
1.61615E+18,-373.9046079,0.033418285,-0.003739113,-0.006334528,3
1.61615E+18,-373.8946748,0.042416415,-0.015848507,-0.012111303,3
1.61615E+18,-373.8847419,0.04105331,-0.027530689,-0.014333929,3
1.61615E+18,-373.8748091,0.047301849,-0.029881197,-0.015838653,3
1.61615E+18,-373.864876,0.039596682,-0.034936654,-0.008891514,3
1.61615E+18,-373.8549429,0.035922962,-0.032153526,0.012279015,3
1.61615E+18,-373.8450098,0.026579379,-0.016887787,0.030172079,3
1.61615E+18,-373.8350769,0.027711014,-0.010142916,0.044716139,3
1.61615E+18,-373.825144,0.029172903,-0.002711816,0.056052188,3
1.61615E+18,-373.8152119,0.010455343,-0.002630787,0.069183993,3
1.61615E+18,-373.8052788,0.005645897,-0.016278569,0.064614173,3
1.61615E+18,-373.7953459,0.00100304,-0.014909838,0.059894264,3
1.61615E+18,-373.7854128,0.00010346,-0.021738661,0.043878455,3
1.61615E+18,-373.77548,-0.001414543,-0.025692952,0.026526361,3
1.61615E+18,-373.7655469,0.037133507,-0.010225699,0.012361891,3
1.61615E+18,-373.7556138,0.066081369,-0.006564692,-0.004712384,3
1.61615E+18,-373.7456809,0.071695117,0.016525749,-0.013082166,3
1.61615E+18,-373.735748,0.087051676,0.033255569,-0.029943769,3
1.61615E+18,-373.7258149,0.097509942,0.04153671,-0.044212185,3
1.61615E+18,-373.7158818,0.094541739,0.033003859,-0.052623647,3
1.61615E+18,-373.705949,0.067659578,0.010046324,-0.072395146,3
1.61615E+18,-373.6960161,0.029566871,-0.011971593,-0.084163115,3
1.61615E+18,-373.686083,-0.008398411,-0.0366702,-0.087097049,3
1.61615E+18,-373.6761499,-0.035015199,-0.045224751,-0.086914505,3
1.61615E+18,-373.6662168,-0.032947745,-0.040786549,-0.07207122,3
1.61615E+18,-373.6562839,0.003488427,-0.032054888,-0.060223181,3
1.61615E+18,-373.6463511,0.055922378,-0.014825009,-0.037332198,3
1.61615E+18,-373.636418,0.092503512,0.001785495,-0.030509905,3
1.61615E+18,-373.6264849,0.093353406,0.019884704,-0.018373943,3
1.61615E+18,-373.6165518,0.07482114,0.045660293,-0.003317125,3
1.61615E+18,-373.6066191,0.049462242,0.052287529,0.020822295,3
1.61615E+18,-373.596687,0.025934067,0.048583487,0.02407479,3
1.61615E+18,-373.5867539,0.032322891,0.029621304,0.019528548,3
1.61615E+18,-373.576821,0.02522212,0.011533859,0.019714594,3
1.61615E+18,-373.5668879,0.013884148,-0.004209434,0.017727601,3
1.61615E+18,-373.5569551,0.015974983,-0.012989903,0.011829367,3
1.61615E+18,-373.547022,0.033017888,-0.01204875,0.023037405,3
1.61615E+18,-373.5370889,0.063974752,-0.016657047,0.020831776,3
1.61615E+18,-373.527156,0.070845222,0.001126154,0.024335489,3
1.61615E+18,-373.5172231,0.064859133,0.016712065,0.041672968,3
1.61615E+18,-373.5072944,0.037196635,0.016144933,0.054458114,3
1.61615E+18,-373.4973613,0.002820318,0.014492197,0.069079089,3
1.61615E+18,-373.4874282,-0.020482232,0.008493615,0.067385355,3
1.61615E+18,-373.4774951,-0.021340894,0.003321692,0.05279857,3
1.61615E+18,-373.4675625,-0.014716508,-0.013406229,0.041844671,3
1.61615E+18,-373.4576294,0.008512977,-0.027221988,0.031954453,3
1.61615E+18,-373.4476963,0.037104865,-0.0295299,0.007532971,3
1.61615E+18,-373.4377632,0.063287354,-0.024984658,0.002501496,3
1.61615E+18,-373.4278303,0.065067223,-0.01352569,0.003009795,3
1.61615E+18,-373.4178975,0.062363225,-0.00810615,0.009139639,3
1.61615E+18,-373.4079644,0.054865563,-4.84423E-05,0.005733904,3
1.61615E+18,-373.3980322,0.031219899,-0.000952405,0.007366074,3
1.61615E+18,-373.3880994,0.014622984,-0.005534546,0.010049256,3
1.61615E+18,-373.3781663,0.012108955,-0.003793912,-0.010288681,3
1.61615E+18,-373.3682334,0.001059738,-0.016974589,-0.015085492,3
1.61615E+18,-373.3583003,0.009913491,-0.028214945,-0.017805608,3
1.61615E+18,-373.3483672,0.032206572,-0.028299627,-0.013386446,3
1.61615E+18,-373.3384343,0.047592941,-0.024188173,-0.015137957,3
1.61615E+18,-373.3285015,0.055934069,-0.015736937,-0.018470079,3
1.61615E+18,-373.3185684,0.059784314,0.004830051,-0.017558316,3
1.61615E+18,-373.3086353,0.046442018,0.016200828,-0.021331268,3
1.61615E+18,-373.2987019,0.035642391,0.021114611,-0.01251318,3
1.61615E+18,-373.2887693,0.034592005,0.025430502,-0.001326983,3
1.61615E+18,-373.2788362,0.006171967,0.027375571,-0.001450308,3
1.61615E+18,-373.2689031,0.015915947,0.014715192,-0.001553568,3
1.61615E+18,-373.25897,0.030281156,0.000619228,0.003639726,3
1.61615E+18,-373.2490374,0.042394204,-0.006107085,0.00305649,3
1.61615E+18,-373.2391042,0.03457973,-0.00598302,0.003609402,3
1.61615E+18,-373.2291711,0.040073067,-0.016606267,-0.003157405,3
1.61615E+18,-373.219238,0.038980011,-0.019170053,-0.002014536,3
1.61615E+18,-373.2093052,0.039980128,-0.020249226,0.011411612,3
1.61615E+18,-373.199373,0.043536359,-0.023243294,0.005862143,3
1.61615E+18,-373.1894402,0.036480011,-0.018306714,0.012817159,3
1.61615E+18,-373.1795071,0.015667525,-0.024597266,0.017235678,3
1.61615E+18,-373.169574,0.00742752,-0.029963615,0.027442353,3
1.61615E+18,-373.1596411,0.01382745,-0.032218773,0.024259812,3
1.61615E+18,-373.1497083,0.018577275,-0.039459611,0.026109762,3
1.61615E+18,-373.1397751,0.032888124,-0.027911943,0.02630017,3
1.61615E+18,-373.129842,0.029838673,-0.013103081,0.032309685,3
1.61615E+18,-373.1199089,0.028595395,-0.002193345,0.026193093,3
1.61615E+18,-373.1099763,0.031824294,0.007604045,0.020127591,3
1.61615E+18,-373.1000432,0.025798458,0.009911007,0.015671178,3
1.61615E+18,-373.0901101,0.022926118,0.00682875,0.018286676,3
1.61615E+18,-373.080177,-0.001360767,0.005619082,0.026090984,3
1.61615E+18,-373.0702444,0.009807108,-0.002747399,0.011704923,3
1.61615E+18,-373.0603113,0.035911856,-0.003842647,-0.008733342,3
1.61615E+18,-373.0503782,0.065728317,0.007258666,-0.030305716,3
1.61615E+18,-373.0404451,0.097654903,0.01736388,-0.058596027,3
1.61615E+18,-373.0305122,0.103865448,0.042267362,-0.074700637,3
1.61615E+18,-373.0205793,0.106378892,0.073152768,-0.07591289,3
1.61615E+18,-373.0106462,0.086944124,0.082829528,-0.077401722,3
1.61615E+18,-373.0007141,0.037026539,0.070490563,-0.085470544,3
1.61615E+18,-372.990781,-0.012885785,0.00944412,-0.064988998,3
1.61615E+18,-372.9808481,-0.038561494,-0.042671852,-0.020356358,3
1.61615E+18,-372.9709153,-0.071475921,-0.057387336,-0.001556675,3
1.61615E+18,-372.9609822,-0.072445058,-0.053244026,0.006983838,3
1.61615E+18,-372.9510491,-0.033532267,-0.036870618,0.006493709,3
1.61615E+18,-372.9411162,0.014912907,-0.041272433,0.015536811,3
1.61615E+18,-372.9311833,0.073216627,-0.03135843,0.044001812,3
1.61615E+18,-372.9212502,0.09638123,-0.022727015,0.07237276,3
1.61615E+18,-372.9113171,0.086420977,-0.004630729,0.090595998,3
1.61615E+18,-372.901384,0.086878073,0.002556041,0.097386105,3
1.61615E+18,-372.8914514,0.073181556,0.007842019,0.101374216,3
1.61615E+18,-372.8815183,0.057841364,-0.01033632,0.0896492,3
1.61615E+18,-372.8715852,0.022419922,-0.037895796,0.062397018,3
1.61615E+18,-372.8616521,-0.002112462,-0.043170083,0.044770431,3
1.61615E+18,-372.8517192,-0.037770635,-0.028944136,0.02047919,3
1.61615E+18,-372.8417864,-0.036972763,-0.009325974,0.007311748,3
1.61615E+18,-372.8318533,-0.00687047,0.024930662,0.012223878,3
1.61615E+18,-372.8219202,0.046707975,0.034292511,0.000530472,3
1.61615E+18,-372.8119883,0.098815764,0.064364189,-0.000635037,3
1.61615E+18,-372.8020554,0.134232529,0.090986897,-0.015644564,3
1.61615E+18,-372.7921223,0.126171972,0.086312548,-0.037259553,3
1.61615E+18,-372.7821892,0.104408469,0.08140819,-0.066232175,3
1.61615E+18,-372.7722561,0.02355857,0.058064139,-0.068095923,3
1.61615E+18,-372.7623232,-0.034106852,0.026792876,-0.077956241,3
1.61615E+18,-372.7523904,-0.063830375,-0.010251491,-0.081636145,3
1.61615E+18,-372.7424573,-0.034658641,-0.030435982,-0.088674044,3
1.61615E+18,-372.7325242,0.015995442,-0.052361252,-0.077059466,3
1.61615E+18,-372.7225911,0.065086512,-0.043988999,-0.07610917,3
1.61615E+18,-372.7126584,0.107125327,-0.016410233,-0.057137636,3
1.61615E+18,-372.7027253,0.121658879,0.004373466,-0.03322301,3
1.61615E+18,-372.6927922,0.10394319,0.039857232,-0.001998663,3
1.61615E+18,-372.6828591,0.086752401,0.049530997,0.014109636,3
1.61615E+18,-372.6729265,0.030133272,0.048197775,0.024446998,3
1.61615E+18,-372.6629934,-0.032891631,0.028661154,0.040580587,3
1.61615E+18,-372.6530603,-0.05504618,-0.006370996,0.054642586,3
1.61615E+18,-372.6431282,-0.044919338,-0.044762394,0.034927539,3
1.61615E+18,-372.6331953,0.006297639,-0.072704732,0.010774903,3
1.61615E+18,-372.6232625,0.050279988,-0.074066668,-0.001726468,3
1.61615E+18,-372.6133293,0.095413262,-0.076160426,-0.021945911,3
1.61615E+18,-372.6033962,0.126170219,-0.055333253,-0.02335164,3
1.61615E+18,-372.5934631,0.141715579,-0.033219548,-0.014750045,3
1.61615E+18,-372.5835303,0.113027244,-0.013469649,-0.007723846,3
1.61615E+18,-372.5735974,0.057176178,0.008739698,-0.014408163,3
1.61615E+18,-372.5636643,0.006910218,0.018398776,-0.022033829,3
1.61615E+18,-372.5537312,-0.047664253,0.004653598,-0.027266167,3
1.61615E+18,-372.5437981,-0.048835635,0.010403832,-0.016639174,3
1.61615E+18,-372.5338655,-0.023873628,0.023650632,-0.009876456,3
1.61615E+18,-372.5239324,0.025109307,0.049426586,-0.00022919,3
1.61615E+18,-372.5139993,0.088991704,0.097744846,0.003884404,3
1.61615E+18,-372.5040654,0.112449152,0.128434584,0.014879854,3
1.61615E+18,-372.4941323,0.105690325,0.143001088,0.015708103,3
1.61615E+18,-372.4841995,0.075205755,0.133010367,0.01968085,3
1.61615E+18,-372.4742664,0.016847674,0.099581999,0.015812061,3
1.61615E+18,-372.4643335,-0.022900399,0.030770401,0.022512212,3
1.61615E+18,-372.4544014,-0.053810501,-0.029608153,0.020983555,3
1.61615E+18,-372.4444685,-0.051866381,-0.077576576,0.031025344,3
1.61615E+18,-372.4345354,-0.020271804,-0.10675474,0.034195133,3
1.61615E+18,-372.4246023,0.018669045,-0.118096291,0.040591858,3
1.61615E+18,-372.4146694,0.047213587,-0.104293976,0.04564578,3
1.61615E+18,-372.4047363,0.063472647,-0.083160002,0.051289987,3
1.61615E+18,-372.3948035,0.057765376,-0.048415144,0.0547892,3
1.61615E+18,-372.3848704,0.032699908,-0.035305926,0.048621983,3
1.61615E+18,-372.3749375,0.004123802,-0.023997546,0.058445156,3
1.61615E+18,-372.3650044,-0.016000702,-0.042297392,0.070365759,3
1.61615E+18,-372.3550715,-0.005871522,-0.069396412,0.066593967,3
1.61615E+18,-372.3451384,-0.006693945,-0.094036347,0.064652057,3
1.61615E+18,-372.3352053,0.009050737,-0.117897334,0.067680666,3
1.61615E+18,-372.3252725,0.016637247,-0.12106179,0.069975015,3
1.61615E+18,-372.3153394,0.026551907,-0.093656262,0.064882268,3
1.61615E+18,-372.3054065,0.039127895,-0.056026058,0.057602842,3
1.61615E+18,-372.2954744,0.063213704,-0.008657865,0.065797528,3
1.61615E+18,-372.2855413,0.070907181,0.046342064,0.07630873,3
1.61615E+18,-372.2756084,0.061426236,0.064537866,0.080656121,3
1.61615E+18,-372.2656755,0.029710663,0.076506317,0.081585045,3
1.61615E+18,-372.2557424,-0.019022096,0.081808295,0.062076636,3
1.61615E+18,-372.2458093,-0.047237552,0.059606839,0.034072512,3
1.61615E+18,-372.2358765,-0.04345628,0.025201223,0.014747953,3
1.61615E+18,-372.2259436,0.002025368,-0.001474091,-0.003089583,3
1.61615E+18,-372.2160105,0.050734162,-0.011011881,-0.026849712,3
1.61615E+18,-372.2060774,0.085003511,-0.018644202,-0.024559116,3
1.61615E+18,-372.1961445,0.097262104,-0.010709099,-0.042387162,3
1.61615E+18,-372.1862114,0.089788407,0.000785963,-0.064767628,3
1.61615E+18,-372.1762786,0.077728552,0.001604951,-0.090920636,3
1.61615E+18,-372.1663455,0.069338909,-0.000913681,-0.116091664,3
1.61615E+18,-372.1564124,0.0696867,-0.005671031,-0.135815944,3
1.61615E+18,-372.1464792,0.061529697,-0.014462094,-0.134544554,3
1.61615E+18,-372.1365461,0.052004913,-0.022784152,-0.153470478,3
1.61615E+18,-372.1266145,0.046789808,-0.006044395,-0.157910854,3
1.61615E+18,-372.1166814,0.054835168,0.00351663,-0.154891086,3
1.61615E+18,-372.1067483,0.06210019,0.019107144,-0.137324002,3
1.61615E+18,-372.0968157,0.08076222,0.047439285,-0.109495855,3
1.61615E+18,-372.0868826,0.080621351,0.067907561,-0.085569155,3
1.61615E+18,-372.0769495,0.071684011,0.099427977,-0.037843098,3
1.61615E+18,-372.0670161,0.050826516,0.089267014,0.00121006,3
1.61615E+18,-372.0570833,0.008282675,0.083902564,0.028518449,3
1.61615E+18,-372.0471504,-0.014821137,0.05665946,0.056980198,3
1.61615E+18,-372.0372173,-0.032547932,0.017435119,0.061089789,3
1.61615E+18,-372.0272842,-0.023070494,-0.00873473,0.056880976,3
1.61615E+18,-372.0173513,0.001929507,-0.023301454,0.050627404,3
1.61615E+18,-372.0074182,0.037976387,-0.029527489,0.043821241,3
1.61615E+18,-371.9974854,0.05796762,-0.030172728,0.04045002,3
1.61615E+18,-371.9875522,0.09606968,-0.025358459,0.042246082,3
1.61615E+18,-371.9776194,0.088538115,-0.018054055,0.056596907,3
1.61615E+18,-371.9676873,0.053954293,-0.011965455,0.059301581,3
1.61615E+18,-371.9577544,0.015527824,-0.021856442,0.061386845,3
1.61615E+18,-371.9478213,-0.011195932,-0.030445407,0.061608077,3
1.61615E+18,-371.9378882,-0.020408582,-0.045001537,0.065236132,3
1.61615E+18,-371.9279551,0.016456045,-0.048655748,0.066052709,3
1.61615E+18,-371.9180222,0.046729602,-0.044791328,0.059922444,3
1.61615E+18,-371.9080894,0.080419691,-0.042583516,0.036335589,3
1.61615E+18,-371.8981563,0.082986326,-0.024486645,0.027807186,3
1.61615E+18,-371.8882231,0.074621233,-0.011560309,0.020762537,3
1.61615E+18,-371.8782903,0.041002457,-0.001466419,0.011480129,3
1.61615E+18,-371.8683574,0.020862755,0.002353066,0.014142734,3
1.61615E+18,-371.8584243,0.014340076,0.006783303,0.011812502,3
1.61615E+18,-371.8484912,0.001983867,0.002249386,0.008976164,3
1.61615E+18,-371.8385583,0.010427286,0.008635288,-0.002990177,3
1.61615E+18,-371.8286252,0.024256489,0.01842961,-0.009502371,3
1.61615E+18,-371.8186934,0.013066987,0.019765315,-0.015092191,3
1.61615E+18,-371.8087603,0.016506898,0.033503187,-0.007912426,3
1.61615E+18,-371.7988271,0.041213469,0.034604792,-0.008295035,3
1.61615E+18,-371.7888943,0.057684712,0.024725349,-0.004372954,3
1.61615E+18,-371.7789614,0.071326284,0.030435251,0.001668499,3
1.61615E+18,-371.7690283,0.0685311,0.025228915,0.001758717,3
1.61615E+18,-371.7590952,0.056620297,0.035006578,-0.004557234,3
1.61615E+18,-371.7491624,0.032584173,0.025401787,-0.000910952,3
1.61615E+18,-371.7392295,-0.112518126,-0.001939663,0.029778678,3
1.61615E+18,-371.7292964,-0.181806766,0.020112668,-0.037877046,3
1.61615E+18,-371.7193633,-0.044562195,-0.038749198,0.018571713,3
1.61615E+18,-371.7094302,0.047840194,-0.013034692,0.007463765,3
1.61615E+18,-371.6994973,0.157726802,0.064091875,-0.068583364,3
1.61615E+18,-371.6895645,0.227730897,0.058484995,-0.126342278,3
1.61615E+18,-371.6796313,0.210262461,-0.007512129,-0.122183186,3
1.61615E+18,-371.6696982,0.10793372,-0.081484982,-0.084305172,3
1.61615E+18,-371.6597661,-0.001416881,-0.087970617,-0.034344264,3
1.61615E+18,-371.6498335,-0.038636312,-0.051770519,0.022614732,3
1.61615E+18,-371.6399004,-0.046723757,-0.036784985,0.08114353,3
1.61615E+18,-371.6299673,-0.035962709,0.004903116,0.092063074,3
1.61615E+18,-371.6200342,-0.007208324,0.005382204,0.071176947,3
1.61615E+18,-371.6101013,0.000247253,-0.008095044,0.079732905,3
1.61615E+18,-371.6001685,0.004376315,-0.025968335,0.063351519,3
1.61615E+18,-371.5902354,0.020046178,-0.028100013,0.028759189,3
1.61615E+18,-371.5803022,0.060135027,-0.03825272,0.013654322,3
1.61615E+18,-371.5703694,0.054153615,-0.051638125,0.01685546,3
1.61615E+18,-371.5604365,0.044743397,-0.050140215,0.015151383,3
1.61615E+18,-371.5505034,0.035984337,-0.025138606,0.00368384,3
1.61615E+18,-371.5405703,0.015597967,0.007391498,0.004438046,3
1.61615E+18,-371.5306375,0.03088789,0.023419965,0.013012234,3
1.61615E+18,-371.5207043,0.040386371,0.022700419,0.03183203,3
1.61615E+18,-371.5107725,0.066320438,0.001322919,0.026784081,3
1.61615E+18,-371.5008398,0.035948681,0.003646613,-0.026078809,3
1.61615E+18,-371.4909067,0.012554946,-0.018799758,-0.034346671,3
1.61615E+18,-371.4809739,0.011122867,-0.029247868,-0.036045319,3
1.61615E+18,-371.471041,0.009637012,-0.031196299,-0.036706783,3
1.61615E+18,-371.4611079,0.029933366,-0.03317717,-0.03953517,3
1.61615E+18,-371.4511748,0.032658992,-0.034975963,-0.03238301,3
1.61615E+18,-371.4412417,0.040664603,-0.069988751,0.016095349,3
1.61615E+18,-371.4313088,0.04743512,-0.060756009,0.06464918,3
1.61615E+18,-371.421376,0.038610593,-0.007384557,0.07873466,3
1.61615E+18,-371.4114429,0.040856911,0.054884121,0.065732847,3
1.61615E+18,-371.4015098,0.035270635,0.082637951,0.045044773,3
1.61615E+18,-371.3915767,0.016391163,0.089670261,0.035501448,3
1.61615E+18,-371.381644,-0.004569208,0.074596903,0.034222241,3
1.61615E+18,-371.3717109,-0.010578093,0.036426162,0.019253156,3
1.61615E+18,-371.3617788,-0.007797522,0.013218013,0.002052211,3
1.61615E+18,-371.3518457,0.014790157,-0.005399667,0.003320943,3
1.61615E+18,-371.3419128,0.052706923,-0.018760815,-0.018969489,3
1.61615E+18,-371.33198,0.069167644,-0.020146643,-0.050175953,3
1.61615E+18,-371.3220469,0.092052261,-0.005937719,-0.098136202,3
1.61615E+18,-371.3121138,0.09043898,-0.00692958,-0.132079416,3
1.61615E+18,-371.3021809,0.070607906,-0.060083005,-0.10062242,3
1.61615E+18,-371.292248,0.061321607,-0.049682607,-0.082387895,3
1.61615E+18,-371.2823149,0.045267129,-0.025839082,-0.057437222,3
1.61615E+18,-371.2723818,0.060657006,0.016201485,-0.046813929,3
1.61615E+18,-371.2624487,0.072441551,0.050403323,-0.041731319,3
1.61615E+18,-371.2525161,0.047589434,0.054739525,-0.006750707,3
1.61615E+18,-371.242583,0.014877251,0.027497298,0.036976142,3
1.61615E+18,-371.2326499,-0.032624505,-0.010138605,0.066719676,3
1.61615E+18,-371.2227168,-0.061458385,-0.014913638,0.080107328,3
1.61615E+18,-371.2127849,-0.029718846,-0.002682006,0.05724285,3
1.61615E+18,-371.2028518,0.053702949,0.02951799,0.006988105,3
1.61615E+18,-371.1929189,0.121349082,0.064633362,-0.036622379,3
1.61615E+18,-371.1829858,0.145519647,0.049765098,-0.049268418,3
1.61615E+18,-371.173053,0.097554365,0.007816373,-0.032122583,3
1.61615E+18,-371.1631199,-0.006902619,-0.043493689,0.014869305,3
1.61615E+18,-371.153187,-0.083990535,-0.082605949,0.039686972,3
1.61615E+18,-371.1432539,-0.096436175,-0.075425609,0.043612411,3
1.61615E+18,-371.1333208,-0.063503043,-0.033957726,0.03944351,3
1.61615E+18,-371.1233879,0.011857611,0.002167626,0.016309613,3
1.61615E+18,-371.1134551,0.105364747,0.056424921,-0.001716896,3
1.61615E+18,-371.103522,0.151747728,0.085090605,-0.024679701,3
1.61615E+18,-371.0935889,0.158500709,0.081772201,-0.030382763,3
1.61615E+18,-371.0836558,0.101048637,0.032045097,-0.004812378,3
1.61615E+18,-371.0737239,0.008416531,-0.03117774,0.006075995,3
1.61615E+18,-371.0637908,-0.054687283,-0.061443772,0.012358272,3
1.61615E+18,-371.0538579,-0.070022215,-0.062965502,0.01280366,3
1.61615E+18,-371.043925,-0.029324879,-0.046243938,0.002312907,3
1.61615E+18,-371.0339919,0.027948914,0.003776523,-0.012453257,3
1.61615E+18,-371.0240588,0.089740477,0.037470264,-0.024975113,3
1.61615E+18,-371.014126,0.135480484,0.063817954,-0.02522096,3
1.61615E+18,-371.0041929,0.128660282,0.04305369,-0.036206564,3
1.61615E+18,-370.99426,0.083926822,0.004584405,-0.031163383,3
1.61615E+18,-370.9843269,0.039090486,-0.021918475,-0.040743569,3
1.61615E+18,-370.974394,0.015219196,-0.05573124,-0.028760112,3
1.61615E+18,-370.9644609,0.023736265,-0.015755349,-0.038717479,3
1.61615E+18,-370.9545278,0.061644848,0.036210035,-0.028362591,3
1.61615E+18,-370.944595,0.079838676,0.067074033,-0.011444573,3
1.61615E+18,-370.9346628,0.064024436,0.077189184,-0.002538058,3
1.61615E+18,-370.92473,0.030052024,0.055528922,0.014542069,3
1.61615E+18,-370.9147969,-0.002934884,0.051025765,0.003489486,3
1.61615E+18,-370.904864,-0.014849194,0.045860126,-0.00035269,3
1.61615E+18,-370.8949309,0.034199207,0.000762509,0.019026151,3
1.61615E+18,-370.884998,0.084549922,-0.064812664,0.054187024,3
1.61615E+18,-370.8750649,0.0778098,-0.089946886,0.036526965,3
1.61615E+18,-370.8651321,0.006036942,-0.091566377,0.033872158,3
1.61615E+18,-370.855199,-0.040400984,-0.088393008,0.032944677,3
1.61615E+18,-370.8452659,-0.087491821,-0.084381361,0.028761929,3
1.61615E+18,-370.8353328,-0.084893037,-0.060304393,0.026812741,3
1.61615E+18,-370.8253997,-0.008545126,-0.028677667,0.017688427,3
1.61615E+18,-370.8154668,0.07466858,0.024776202,-0.000129901,3
1.61615E+18,-370.8055339,0.149966105,0.065800652,-0.02378289,3
1.61615E+18,-370.7956018,0.171823132,0.071927172,-0.02255006,3
1.61615E+18,-370.7856689,0.123567343,0.034971214,0.008207272,3
1.61615E+18,-370.7757361,0.043587797,0.026123233,0.028182723,3
1.61615E+18,-370.765803,-0.027926118,0.008413024,0.002438187,3
1.61615E+18,-370.7558696,-0.070030399,-0.014931027,-0.000276981,3
1.61615E+18,-370.7459368,-0.066108257,-0.029486937,0.024183132,3
1.61615E+18,-370.7360037,-0.019623569,-0.021334099,0.03368754,3
1.61615E+18,-370.7260708,0.043587797,0.009166107,0.032977428,3
1.61615E+18,-370.7161377,0.094247725,0.02973156,0.025068792,3
1.61615E+18,-370.7062048,0.110416769,0.046615548,-0.006429211,3
1.61615E+18,-370.6962717,0.105840548,0.024058921,-0.005822021,3
1.61615E+18,-370.6863389,0.072419924,-0.018991847,0.006949289,3
1.61615E+18,-370.6764058,0.024345921,-0.056652811,-0.008357531,3
1.61615E+18,-370.6664729,-0.0387123,-0.068817589,-0.06117028,3
1.61615E+18,-370.6565398,-0.073982351,-0.07646993,-0.126750896,3
1.61615E+18,-370.6466079,-0.040189387,-0.108809919,-0.158148516,3
1.61615E+18,-370.6366748,0.026319267,-0.131960712,-0.141316451,3
1.61615E+18,-370.6267417,0.1164315,-0.114290834,-0.078384157,3
1.61615E+18,-370.6168086,0.167496501,-0.057043783,-0.017724191,3
1.61615E+18,-370.6068757,0.14873101,0.012763693,0.02664027,3
1.61615E+18,-370.5969429,0.08869769,0.074258245,0.046333963,3
1.61615E+18,-370.5870098,0.014025603,0.110977253,0.068138776,3
1.61615E+18,-370.5770767,-0.027405309,0.10477796,0.110626585,3
1.61615E+18,-370.5671438,-0.05933131,0.072075348,0.151932035,3
1.61615E+18,-370.5572109,-0.048112581,0.053475058,0.142493331,3
1.61615E+18,-370.5472778,-0.011010639,0.021959026,0.102798394,3
1.61615E+18,-370.5373447,0.023787703,-0.025269247,0.065956628,3
1.61615E+18,-370.5274119,0.068522332,-0.066034315,0.016720358,3
1.61615E+18,-370.5174788,0.08278642,-0.077516151,-0.022510166,3
1.61615E+18,-370.5075469,0.06961948,-0.063007441,-0.052780454,3
1.61615E+18,-370.4976096,0.06260171,-0.040704497,-0.052360713,3
1.61615E+18,-370.4876765,0.067607555,-0.013364947,-0.057262541,3
1.61615E+18,-370.4777439,0.072655486,0.020976956,-0.049069581,3
1.61615E+18,-370.4678108,0.053060559,0.040683089,-0.029420457,3
1.61615E+18,-370.4578777,0.035604982,0.047669441,-0.016620907,3
1.61615E+18,-370.4479446,0.013069909,0.015262816,-0.010085176,3
1.61615E+18,-370.4380117,-0.007235212,-0.014648338,-0.003831277,3
1.61615E+18,-370.4280789,-0.005698504,-0.039093482,0.011451633,3
1.61615E+18,-370.4181458,0.013151158,-0.052164341,0.011372522,3
1.61615E+18,-370.4082126,0.027622166,-0.054223392,0.008308202,3
1.61615E+18,-370.3982798,0.043097383,-0.051143254,0.032994105,3
1.61615E+18,-370.3883469,0.038200259,-0.035455563,0.069309984,3
1.61615E+18,-370.3784148,0.032989246,-0.006773659,0.101761498,3
1.61615E+18,-370.3684817,0.022106033,0.015516426,0.123153611,3
1.61615E+18,-370.3585486,0.001368366,0.050938014,0.162127814,3
1.61615E+18,-370.348616,0.00370996,0.055956719,0.171951654,3
1.61615E+18,-370.3386829,0.01369827,0.053786901,0.16264528,3
1.61615E+18,-370.3287498,0.00919336,0.041843219,0.150276112,3
1.61615E+18,-370.3188167,0.016956395,0.029419571,0.123632362,3
1.61615E+18,-370.3088838,0.019314941,0.008991189,0.089776534,3
1.61615E+18,-370.2989509,0.019857962,0.00628456,0.054859188,3
1.61615E+18,-370.2890178,0.034614217,0.001910437,0.01395472,3
1.61615E+18,-370.2790847,0.036489948,-0.000950433,-0.013950948,3
1.61615E+18,-370.2691516,0.028346389,-0.004172975,-0.057145709,3
1.61615E+18,-370.259219,0.039660395,-0.014053075,-0.080101355,3
1.61615E+18,-370.2492859,0.05488719,-0.006435294,-0.116743744,3
1.61615E+18,-370.2393528,0.052608139,-0.016607436,-0.142655828,3
1.61615E+18,-370.2294207,0.037155718,-0.022051381,-0.155574757,3
1.61615E+18,-370.2194878,0.062390113,-0.029332989,-0.147902469,3
1.61615E+18,-370.2095549,0.053950201,-0.030852234,-0.140894225,3
1.61615E+18,-370.1996218,0.061511577,-0.020678266,-0.121946062,3
1.61615E+18,-370.1896887,0.069236618,-0.002986249,-0.098453917,3
1.61615E+18,-370.1797556,0.06501637,0.019678076,-0.06488172,3
1.61615E+18,-370.169823,0.062289575,0.031074718,-0.036360184,3
1.61615E+18,-370.1598899,0.06977204,0.038122225,-0.001587443,3
1.61615E+18,-370.1499568,0.059914663,0.039109044,0.014054792,3
1.61615E+18,-370.1400237,0.036024669,0.045764338,0.041809654,3
1.61615E+18,-370.1300911,0.015742928,0.049332478,0.051951867,3
1.61615E+18,-370.120158,0.018799978,0.045950069,0.062304143,3
1.61615E+18,-370.1102249,0.017059271,0.040215106,0.044916973,3
1.61615E+18,-370.1002927,0.013051205,0.005755422,0.046476532,3
1.61615E+18,-370.0903599,0.04165946,-0.006306626,0.032598621,3
1.61615E+18,-370.0804268,0.076239775,-0.014056655,0.006657887,3
1.61615E+18,-370.0704939,0.084050741,-0.020706396,-0.003788679,3
1.61615E+18,-370.0605608,0.069558105,-0.006958222,-0.005214785,3
1.61615E+18,-370.0506277,0.049210898,0.001165902,7.73944E-05,3
1.61615E+18,-370.0406948,0.012111878,0.010582184,0.008926097,3
1.61615E+18,-370.030762,-0.017957681,0.033279315,-0.003312011,3
1.61615E+18,-370.0208289,-0.00505553,0.020244843,-0.02179462,3
1.61615E+18,-370.0108958,0.025950434,0.008669921,-0.040308538,3
1.61615E+18,-370.0009626,0.055457683,-0.022087329,-0.048761401,3
1.61615E+18,-369.99103,0.086910222,-0.044761371,-0.042328755,3
1.61615E+18,-369.9810969,0.103244101,-0.058232116,-0.040167659,3
1.61615E+18,-369.9711638,0.090412677,-0.05774689,-0.036231443,3
1.61615E+18,-369.9612317,0.064569795,-0.050132689,-0.029880686,3
1.61615E+18,-369.9512988,0.027497079,-0.047255307,0.002186915,3
1.61615E+18,-369.941366,-0.016471827,-0.037047947,0.037037325,3
1.61615E+18,-369.9314329,-0.0405401,-0.015780995,0.071905463,3
1.61615E+18,-369.9214998,-0.039925183,-0.004625979,0.098517182,3
1.61615E+18,-369.9115669,-0.03288754,0.010700404,0.10035207,3
1.61615E+18,-369.9016338,0.016928338,0.034759909,0.077383446,3
1.61615E+18,-369.8917009,0.05581015,0.055232131,0.061993688,3
1.61615E+18,-369.8817678,0.086924835,0.057635247,0.065584114,3
1.61615E+18,-369.8718347,0.098012046,0.043885027,0.053387572,3
1.61615E+18,-369.8619019,0.051684595,0.031196152,0.048932812,3
1.61615E+18,-369.851969,0.019588498,0.008385843,0.031469837,3
1.61615E+18,-369.8420359,-0.01835691,-0.014901363,0.0126118,3
1.61615E+18,-369.8321028,-0.028218379,-0.038058732,-0.001556025,3
1.61615E+18,-369.8221709,-0.008078677,-0.042147535,-0.022118801,3
1.61615E+18,-369.8122378,0.045370589,-0.03458258,-0.029823923,3
1.61615E+18,-369.8023049,0.091156189,-0.018453648,-0.031137554,3
1.61615E+18,-369.7923718,0.119004565,-0.005661533,-0.018886432,3
1.61615E+18,-369.782439,0.118156424,0.008169936,-0.020627659,3
1.61615E+18,-369.7725059,0.086835403,0.006825462,-0.0164602,3
1.61615E+18,-369.762573,0.060814826,0.006148586,-0.026044542,3
1.61615E+18,-369.7526399,0.031993806,-0.002809285,-0.029117958,3
1.61615E+18,-369.7427068,0.009483868,-0.010247472,-0.029591448,3
1.61615E+18,-369.7327739,0.021672903,-0.001300927,-0.03382008,3
1.61615E+18,-369.7228411,0.045939329,0.012034137,-0.027827315,3
1.61615E+18,-369.712908,0.055971478,0.024091289,-0.021673049,3
1.61615E+18,-369.7029749,0.048507718,0.010254414,-0.008991773,3
1.61615E+18,-369.693043,0.040451837,-0.008432751,-0.001590895,3
1.61615E+18,-369.6831099,-0.006064415,-0.02567337,0.021900976,3
1.61615E+18,-369.6731768,-0.049302083,-0.047850277,0.050401304,3
1.61615E+18,-369.6632439,-0.058309566,-0.042972807,0.068631985,3
1.61615E+18,-369.6533108,-0.021114684,-0.051727922,0.084538369,3
1.61615E+18,-369.6433779,0.037138183,-0.039337519,0.087376314,3
1.61615E+18,-369.6334448,0.110952192,-0.023367724,0.071142132,3
1.61615E+18,-369.623512,0.138877725,-0.010629457,0.056048361,3
1.61615E+18,-369.6135789,0.111793903,-0.009576953,0.038148839,3
1.61615E+18,-369.603646,0.060238488,-0.000458192,0.031365938,3
1.61615E+18,-369.5937129,0.004998247,0.00460501,0.020342458,3
1.61615E+18,-369.58378,-0.024228432,0.008920389,0.001789641,3
1.61615E+18,-369.5738469,-0.014434184,0.028805385,-0.011315102,3
1.61615E+18,-369.5639136,0.013557985,0.060356927,-0.042490385,3
1.61615E+18,-369.5539819,0.057530398,0.068753657,-0.072810695,3
1.61615E+18,-369.5440488,0.091932434,0.078135233,-0.088340675,3
1.61615E+18,-369.5341157,0.103951373,0.068278075,-0.080775628,3
1.61615E+18,-369.5241829,0.11212825,0.037201019,-0.093807973,3
1.61615E+18,-369.51425,0.08936346,0.015249299,-0.104175893,3
1.61615E+18,-369.5043198,0.061660045,-0.005949994,-0.085568013,3
1.61615E+18,-369.4943872,0.023144144,-0.038848494,-0.044989627,3
1.61615E+18,-369.4844541,-0.010050269,-0.062577525,-0.018350508,3
1.61615E+18,-369.474521,-0.031020577,-0.064782926,0.011532999,3
1.61615E+18,-369.4645879,-0.028399581,-0.071266297,0.026312216,3
1.61615E+18,-369.4546553,-0.016933599,-0.057352411,0.051218365,3
1.61615E+18,-369.4447222,-0.010972645,-0.034041386,0.10284891,3
1.61615E+18,-369.4347891,0.017156302,-0.02181896,0.123944433,3
1.61615E+18,-369.424856,-0.015762802,0.014409049,0.143315634,3
1.61615E+18,-369.4149241,-0.017885785,0.036497766,0.161833945,3
1.61615E+18,-369.404991,-0.001767594,0.043133697,0.173231373,3
1.61615E+18,-369.3950581,0.006556582,0.035227308,0.160500651,3
1.61615E+18,-369.385125,0.027736148,0.025183103,0.149807389,3
1.61615E+18,-369.3751919,0.050755789,-0.004355784,0.128593628,3
1.61615E+18,-369.365259,0.08232757,-0.016071649,0.084064952,3
1.61615E+18,-369.3553262,0.104195703,-0.031812019,0.029149897,3
1.61615E+18,-369.3453931,0.118275082,-0.036264615,-0.041433569,3
1.61615E+18,-369.33546,0.10301906,-0.022542014,-0.103307467,3
1.61615E+18,-369.3255269,0.068465049,-0.011004867,-0.142872795,3
1.61615E+18,-369.3155942,0.060365329,-0.014543562,-0.172549693,3
1.61615E+18,-369.3056611,0.041799745,-0.019327874,-0.183871553,3
1.61615E+18,-369.295728,0.031919571,-0.033314679,-0.168484891,3
1.61615E+18,-369.2857961,0.035229134,-0.042373818,-0.149490195,3
1.61615E+18,-369.275863,0.060702014,-0.047020475,-0.112469382,3
1.61615E+18,-369.2659302,0.086916651,-0.041869303,-0.077564621,3
1.61615E+18,-369.2559971,0.086772275,-0.033713031,-0.057096893,3
1.61615E+18,-369.246064,0.090346626,-0.002954028,-0.033533199,3
1.61615E+18,-369.2361311,0.052334583,0.044434916,-0.007741454,3
1.61615E+18,-369.226198,0.000113397,0.066167878,0.021264678,3
1.61615E+18,-369.2162651,-0.050278235,0.075467767,0.040803829,3
1.61615E+18,-369.206332,-0.080881463,0.065472078,0.060471666,3
1.61615E+18,-369.1963989,-0.092795188,0.048846741,0.072251344,3
1.61615E+18,-369.1864661,-0.074947981,0.040990401,0.082689079,3
1.61615E+18,-369.1765332,-0.031104748,0.026310792,0.080833824,3
1.61615E+18,-369.1666001,0.022685295,0.017803587,0.077397859,3
1.61615E+18,-369.1566682,0.076577628,0.020958178,0.064425044,3
1.61615E+18,-369.1467351,0.116247375,0.029559418,0.043327996,3
1.61615E+18,-369.136802,0.132437463,0.03341149,0.028650815,3
1.61615E+18,-369.1268691,0.129692548,0.03380312,0.014872337,3
1.61615E+18,-369.116936,0.115354226,0.01576229,-0.008797811,3
1.61615E+18,-369.1070032,0.122151631,-0.005999094,-0.038541127,3
1.61615E+18,-369.0970701,0.100552378,-0.048423766,-0.058632724,3
1.61615E+18,-369.0871372,0.061737202,-0.089608667,-0.083874754,3
1.61615E+18,-369.0772041,0.015720132,-0.11728629,-0.082012056,3
1.61615E+18,-369.067271,-0.029567455,-0.111672542,-0.048310625,3
1.61615E+18,-369.0573381,-0.008269231,-0.072124667,-0.03719848,3
1.61615E+18,-369.047405,0.047610477,-0.018451895,-0.016282725,3
1.61615E+18,-369.0374722,0.101139823,0.036832843,-0.024587584,3
1.61615E+18,-369.02754,0.118486094,0.083056177,-0.025947392,3
1.61615E+18,-369.0176072,0.092030049,0.096297862,-0.035180299,3
1.61615E+18,-369.0076741,0.000685644,0.087369656,-0.044094541,3
1.61615E+18,-368.997741,-0.077454996,0.039143531,-0.024300319,3
1.61615E+18,-368.9878081,-0.106972767,-0.0063265,-0.010538921,3
1.61615E+18,-368.9778752,-0.079088734,-0.053018108,0.0075136,3
1.61615E+18,-368.9679421,-0.026606852,-0.061741659,0.028852768,3
1.61615E+18,-368.958009,0.062122986,-0.068697396,0.037748698,3
1.61615E+18,-368.9480762,0.108875385,-0.045432183,0.058956001,3
1.61615E+18,-368.9381431,0.116851186,-0.023475203,0.079646606,3
1.61615E+18,-368.9282102,0.098978261,-0.028225831,0.113514443,3
1.61615E+18,-368.9182771,0.046470075,-0.016174232,0.136953323,3
1.61615E+18,-368.9083442,-0.015107553,-0.026519393,0.157767792,3
1.61615E+18,-368.8984121,-0.077093177,-0.047857364,0.182238691,3
1.61615E+18,-368.8884792,-0.095284667,-0.0594157,0.189964975,3
1.61615E+18,-368.8785461,-0.060102879,-0.080325436,0.174081725,3
1.61615E+18,-368.868613,-0.00599018,-0.083378029,0.132154143,3
1.61615E+18,-368.8586799,0.038939095,-0.063820146,0.078219505,3
1.61615E+18,-368.8487473,0.077726214,-0.048215384,0.027937872,3
1.61615E+18,-368.8388142,0.109938046,-0.022901202,0.005311788,3
1.61615E+18,-368.8288811,0.101342067,-0.00164068,-0.011857447,3
1.61615E+18,-368.818948,0.078272157,0.017017478,-0.028969179,3
1.61615E+18,-368.8090151,0.028724575,0.021134412,-0.060664431,3
1.61615E+18,-368.7990823,-0.03308277,0.013118206,-0.068087713,3
1.61615E+18,-368.7891492,-0.0381874,-0.001329276,-0.083596969,3
1.61615E+18,-368.7792161,-0.023114334,-0.001267536,-0.090398201,3
1.61615E+18,-368.7692839,0.03130407,0.004365136,-0.096344487,3
1.61615E+18,-368.7593513,0.086293551,0.017439722,-0.092511668,3
1.61615E+18,-368.7494182,0.11327742,0.04502426,-0.084654424,3
1.61615E+18,-368.7394851,0.097605219,0.072017554,-0.073111852,3
1.61615E+18,-368.729552,0.064879007,0.093978699,-0.05802115,3
1.61615E+18,-368.7196194,0.040565819,0.108582832,-0.053684116,3
1.61615E+18,-368.7096863,0.010177111,0.115157753,-0.048877775,3
1.61615E+18,-368.6997532,0.008095628,0.08945713,-0.033854595,3
1.61615E+18,-368.6898201,0.044065352,0.068987392,-0.03978256,3
1.61615E+18,-368.6798872,0.065822425,0.041386634,-0.032131168,3
1.61615E+18,-368.6699543,0.067965867,0.012897841,-0.007628632,3
1.61615E+18,-368.6600212,0.046581718,-0.026975904,0.009249438,3
1.61615E+18,-368.6500881,0.040872693,-0.058384019,0.038540971,3
1.61615E+18,-368.640156,0.030220951,-0.076104239,0.031914338,3
1.61615E+18,-368.6302231,-0.000192892,-0.083336016,0.028275872,3
1.61615E+18,-368.6202903,0.00397358,-0.077959584,0.038812792,3
1.61615E+18,-368.6103572,0.013230068,-0.066556804,0.037998973,3
1.61615E+18,-368.6004241,0.025630116,-0.053484118,0.037277765,3
1.61615E+18,-368.590491,0.032939562,-0.032806364,0.036439022,3
1.61615E+18,-368.5805583,0.043243514,-0.027495398,0.035561261,3
1.61615E+18,-368.5706252,0.07991934,-0.03728877,0.008132307,3
1.61615E+18,-368.5606921,0.082198975,-0.050427142,-0.00801488,3
1.61615E+18,-368.550759,0.06728373,-0.058027826,-0.020355354,3
1.61615E+18,-368.5408264,0.042484805,-0.081482278,-0.016654755,3
1.61615E+18,-368.5308933,0.024831659,-0.078641064,-0.019452295,3
1.61615E+18,-368.5209612,-0.014235446,-0.058508011,-0.01989275,3
1.61615E+18,-368.5110281,-0.002923778,-0.017891411,-0.013946318,3
1.61615E+18,-368.5010962,0.022100773,0.007520605,0.003787136,3
1.61615E+18,-368.4911631,0.043961891,0.02429894,0.011639055,3
1.61615E+18,-368.48123,0.045774494,0.031244522,0.030325297,3
1.61615E+18,-368.4712971,0.03023381,0.017624796,0.010713895,3
1.61615E+18,-368.4613643,0.012190789,0.007403408,0.010523843,3
1.61615E+18,-368.4514312,0.033698271,-0.002349267,0.013754047,3
1.61615E+18,-368.441498,0.045799044,-0.003449556,0.019699538,3
1.61615E+18,-368.4315652,0.052910921,0.005861147,0.024156847,3
1.61615E+18,-368.4216321,0.074188687,0.044599239,0.01107195,3
1.61615E+18,-368.4116992,0.074780808,0.09557459,0.013851929,3
1.61615E+18,-368.4017661,0.062652563,0.137395816,-0.01337619,3
1.61615E+18,-368.391834,0.062249243,0.162402831,-0.032003679,3
1.61615E+18,-368.3819014,0.060879708,0.149250504,-0.048047718,3
1.61615E+18,-368.3719683,0.039546997,0.096988475,-0.06657802,3
1.61615E+18,-368.3620352,0.033107904,0.001749547,-0.061430913,3
1.61615E+18,-368.3521021,0.022057518,-0.111114031,-0.055295917,3
1.61615E+18,-368.3421692,-0.008037761,-0.204160783,-0.032427393,3
1.61615E+18,-368.3322363,-0.023276246,-0.261651433,0.001165046,3
1.61615E+18,-368.3223032,-0.02294716,-0.263377526,0.028065261,3
1.61615E+18,-368.3123701,0.021110008,-0.205693691,0.048466244,3
1.61615E+18,-368.302437,0.075730656,-0.089057901,0.060112103,3
1.61615E+18,-368.2925042,0.102210667,0.033318624,0.064398768,3
1.61615E+18,-368.2825713,0.105619598,0.144093998,0.063981684,3
1.61615E+18,-368.2726392,0.074494977,0.19702947,0.041929363,3
1.61615E+18,-368.2627061,0.039814124,0.198586197,0.034183543,3
1.61615E+18,-368.2527729,0.002866495,0.150624569,0.018816574,3
1.61615E+18,-368.2428403,0.009946224,0.084280019,-0.012157387,3
1.61615E+18,-368.2329072,0.025344869,0.012570435,-0.03345691,3
1.61615E+18,-368.2229741,0.041941199,-0.030507513,-0.053285755,3
1.61615E+18,-368.213041,0.083235917,-0.045043403,-0.064963434,3
1.61615E+18,-368.2031084,0.114684948,-0.032107495,-0.059958045,3
1.61615E+18,-368.1931753,0.116914315,0.012743016,-0.043551895,3
1.61615E+18,-368.1832422,0.072336922,0.046416153,-0.027392303,3
1.61615E+18,-368.1733091,0.028885318,0.060878539,0.005166872,3
1.61615E+18,-368.1633762,-0.020896658,0.044526905,0.024665609,3
1.61615E+18,-368.1534443,-0.049212651,0.016952815,0.022052842,3
1.61615E+18,-368.1435112,-0.055512044,-0.034874622,0.008705568,3
1.61615E+18,-368.1335781,-0.055716042,-0.056054992,0.000778236,3
1.61615E+18,-368.123645,-0.020842882,-0.071899919,-0.002840355,3
1.61615E+18,-368.1137122,0.022337504,-0.066795654,0.014688743,3
1.61615E+18,-368.1037793,0.062336337,-0.049780807,0.007424122,3
1.61615E+18,-368.0938462,0.090521982,-0.017149288,0.01958226,3
1.61615E+18,-368.0839131,0.113079851,0.021248394,0.032429286,3
1.61615E+18,-368.07398,0.08556699,0.036408919,0.048644368,3
1.61615E+18,-368.0640474,0.049450552,0.040266398,0.06481428,3
1.61615E+18,-368.0541143,0.036257893,0.037047947,0.059595879,3
1.61615E+18,-368.0441812,0.011259645,0.02134842,0.058199813,3
1.61615E+18,-368.0342493,-0.004925766,-0.001826266,0.038695166,3
1.61615E+18,-368.0243162,0.000106383,-0.017858897,0.012127605,3
1.61615E+18,-368.0143833,0.011686931,-0.004528949,-0.025495813,3
1.61615E+18,-368.0044502,0.030844636,-0.02047456,-0.048163617,3
1.61615E+18,-367.9945171,0.031430327,-0.029652576,-0.063964797,3
1.61615E+18,-367.9845842,0.024980712,-0.025612653,-0.084187126,3
1.61615E+18,-367.9746514,0.032168578,-0.016728067,-0.086249822,3
1.61615E+18,-367.9647183,0.067812138,-0.00262991,-0.080553099,3
1.61615E+18,-367.9547852,0.075022215,0.025774054,-0.071341929,3
1.61615E+18,-367.9448518,0.075520813,0.052067018,-0.042751986,3
1.61615E+18,-367.9349192,0.077195468,0.068378394,-0.019647258,3
1.61615E+18,-367.9249861,0.057350365,0.072067969,-0.019362215,3
1.61615E+18,-367.915053,0.044413727,0.092120942,-0.002033734,3
1.61615E+18,-367.9051213,0.031216392,0.074696637,-0.005333306,3
1.61615E+18,-367.8951882,0.013866613,0.057935033,0.000677744,3
1.61615E+18,-367.8852551,-0.013930326,0.029123511,0.011455058,3
1.61615E+18,-367.8753223,-0.035320904,-0.005450009,0.021483655,3
1.61615E+18,-367.8653892,-0.023963059,-0.036137043,0.01806222,3
1.61615E+18,-367.8554561,0.010706103,-0.05049838,0.021186023,3
1.61615E+18,-367.8455229,0.050120998,-0.029812297,0.005232448,3
1.61615E+18,-367.8355901,0.061956398,-0.004069076,-0.003738182,3
1.61615E+18,-367.825657,0.063938511,0.013586627,0.003603452,3
1.61615E+18,-367.8157239,0.047095513,0.026259427,0.016894354,3
1.61615E+18,-367.805791,0.043645665,0.030503202,0.027077328,3
1.61615E+18,-367.7958582,0.037846623,0.002896379,0.028641847,3
1.61615E+18,-367.7859263,0.053489598,-0.027707799,0.017417565,3
1.61615E+18,-367.7759932,0.067945994,-0.059504255,-0.004177203,3
1.61615E+18,-367.7660601,0.064124389,-0.080520228,-0.013242764,3
1.61615E+18,-367.756127,0.041413376,-0.099167353,-0.016865446,3
1.61615E+18,-367.7461941,0.001610942,-0.127073086,-0.019143969,3
1.61615E+18,-367.736261,-0.031509237,-0.132334514,0.01005448,3
1.61615E+18,-367.7263279,-0.022905075,-0.121306778,0.031650015,3
1.61615E+18,-367.716395,0.029241292,-0.12001966,0.04529208,3
1.61615E+18,-367.7064622,0.075557638,-0.092023546,0.057378614,3
1.61615E+18,-367.6965291,0.096740126,-0.066060399,0.070356936,3
1.61615E+18,-367.6865959,0.090711952,-0.039633214,0.08908404,3
1.61615E+18,-367.6766641,0.054622402,-0.005492533,0.08744516,3
1.61615E+18,-367.666731,0.025566987,0.018210487,0.080992495,3
1.61615E+18,-367.6567979,0.004280454,0.053278367,0.089962029,3
1.61615E+18,-367.646865,-0.001604513,0.089838165,0.053649474,3
1.61615E+18,-367.6369321,-0.015567571,0.112974126,0.023863618,3
1.61615E+18,-367.626999,-0.025968554,0.121646093,0.016300891,3
1.61615E+18,-367.6170659,-0.037118894,0.105166082,0.017938858,3
1.61615E+18,-367.6071331,-0.020130349,0.073525839,0.016167802,3
1.61615E+18,-367.5972,0.014205635,0.045035804,0.010247418,3
1.61615E+18,-367.5872671,0.075001757,0.025604032,-0.003150043,3
1.61615E+18,-367.577334,0.131434423,0.013907822,-0.023670735,3
1.61615E+18,-367.5674011,0.133361007,0.013490254,-0.040823511,3
1.61615E+18,-367.5574692,0.10025018,0.028484409,-0.060591028,3
1.61615E+18,-367.5475361,0.055187634,0.032822877,-0.072990892,3
1.61615E+18,-367.537603,-0.001042203,0.022087109,-0.0834249,3
1.61615E+18,-367.5276699,-0.031641339,0.007028145,-0.083510359,3
1.61615E+18,-367.5177371,-0.017634441,-0.020530308,-0.082324538,3
1.61615E+18,-367.5078042,0.007743746,-0.044806599,-0.07480808,3
1.61615E+18,-367.4978667,0.053285015,-0.06527977,-0.090119146,3
1.61615E+18,-367.4879336,0.08306173,-0.083994115,-0.092864427,3
1.61615E+18,-367.4780007,0.072123571,-0.087367026,-0.09091479,3
1.61615E+18,-367.4680679,0.045163084,-0.085084175,-0.071728681,3
1.61615E+18,-367.4581348,0.011641922,-0.088445395,-0.03675375,3
1.61615E+18,-367.4482026,-0.026205285,-0.077087843,0.007681239,3
1.61615E+18,-367.4382695,-0.017660744,-0.063423109,0.045412574,3
1.61615E+18,-367.4283369,0.038764323,-0.041128056,0.068206288,3
1.61615E+18,-367.4184038,0.097121819,-0.023643326,0.089555402,3
1.61615E+18,-367.4084707,0.14035072,0.002143734,0.073692282,3
1.61615E+18,-367.3985376,0.176994397,0.035108796,0.049879518,3
1.61615E+18,-367.388605,0.174931035,0.057539677,0.022143772,3
1.61615E+18,-367.3786719,0.126873399,0.089233258,-0.02676671,3
1.61615E+18,-367.3687388,0.038808746,0.123785443,-0.049926691,3
1.61615E+18,-367.3588057,-0.053262804,0.133090008,-0.053342006,3
1.61615E+18,-367.3488728,-0.143420629,0.114572866,-0.040973852,3
1.61615E+18,-367.3389407,-0.194929282,0.068345587,-0.02226253,3
1.61615E+18,-367.3290078,-0.149912329,0.01561784,-0.013246928,3
1.61615E+18,-367.3190747,-0.028850831,-0.034353447,0.011840733,3
1.61615E+18,-367.3091416,0.093788291,-0.074819313,0.032799094,3
1.61615E+18,-367.2992087,0.189923437,-0.093079631,0.035618325,3
1.61615E+18,-367.2892759,0.218626384,-0.107106841,0.044776258,3
1.61615E+18,-367.2793428,0.190582778,-0.102278617,0.055599476,3
1.61615E+18,-367.2694097,0.105644148,-0.112540338,0.06249413,3
1.61615E+18,-367.2594766,-0.010328502,-0.115073436,0.069867098,3
1.61615E+18,-367.2495439,-0.109989484,-0.12387334,0.089720512,3
1.61615E+18,-367.2396108,-0.162720373,-0.124955436,0.100970302,3
1.61615E+18,-367.2296777,-0.142960026,-0.118420628,0.094214362,3
1.61615E+18,-367.2197458,-0.052940732,-0.09211064,0.105810226,3
1.61615E+18,-367.2098127,0.071013564,-0.050849532,0.082388333,3
1.61615E+18,-367.1998799,0.161154439,0.00934424,0.071030689,3
1.61615E+18,-367.1899468,0.205711958,0.049707157,0.068402021,3
1.61615E+18,-367.1800137,0.169829328,0.080235858,0.062190197,3
1.61615E+18,-367.1700808,0.085831194,0.080030618,0.065172538,3
1.61615E+18,-367.1601479,0.002330489,0.072899451,0.056012048,3
1.61615E+18,-367.1502148,-0.056027592,0.055021411,0.022971866,3
1.61615E+18,-367.1402817,-0.070888477,0.012044731,-0.008811339,3
1.61615E+18,-367.1303486,-0.02041092,-0.021406288,-0.058041517,3
1.61615E+18,-367.1204158,0.006943536,-0.05629333,-0.102999515,3
1.61615E+18,-367.1104836,0.043524669,-0.071392627,-0.134721902,3
1.61615E+18,-367.1005508,0.067042323,-0.064820336,-0.133125701,3
1.61615E+18,-367.0906177,0.089952658,-0.040088192,-0.114454519,3
1.61615E+18,-367.0806848,0.076333883,0.014923721,-0.092850882,3
1.61615E+18,-367.0707517,0.084530049,0.070115154,-0.055902139,3
1.61615E+18,-367.0608188,0.05893442,0.125561732,-0.015976353,3
1.61615E+18,-367.0508857,0.028456279,0.141701915,0.028112434,3
1.61615E+18,-367.0409529,0.008393734,0.113774117,0.045944827,3
1.61615E+18,-367.0310198,0.018942016,0.043598392,0.068667431,3
1.61615E+18,-367.0210869,0.03463526,-0.053192807,0.057201495,3
1.61615E+18,-367.0111538,0.058100307,-0.141167151,0.029649654,3
1.61615E+18,-367.0012219,0.06504618,-0.217990132,-0.007156018,3
1.61615E+18,-366.9912888,0.060689154,-0.260465,-0.023980148,3
1.61615E+18,-366.9813557,0.02434709,-0.262898364,-0.040086685,3
1.61615E+18,-366.9714229,-0.01193243,-0.222841152,-0.038508613,3
1.61615E+18,-366.9614897,-0.022657822,-0.151945223,-0.033662223,3
1.61615E+18,-366.9515569,0.015415596,-0.075829002,-0.004488288,3
1.61615E+18,-366.9416238,0.094689039,-0.003766732,0.047360393,3
1.61615E+18,-366.9316907,0.149489135,0.049059653,0.08041548,3
1.61615E+18,-366.9217578,0.14198855,0.094772041,0.099436416,3
1.61615E+18,-366.911825,0.074558105,0.124780737,0.108312564,3
1.61615E+18,-366.9018918,-0.043987026,0.14471023,0.119204654,3
1.61615E+18,-366.8919597,-0.127808049,0.147167487,0.110424779,3
1.61615E+18,-366.8820266,-0.16528467,0.145025945,0.113720305,3
1.61615E+18,-366.872094,-0.102729722,0.149775916,0.120109275,3
1.61615E+18,-366.8621609,0.000845803,0.199340742,0.103207222,3
1.61615E+18,-366.8522278,0.093081604,0.249680498,0.073173711,3
1.61615E+18,-366.8422947,0.167767719,0.268380522,0.044242124,3
1.61615E+18,-366.8323618,0.171273097,0.259385826,0.030283705,3
1.61615E+18,-366.822429,0.114873749,0.206460292,0.002382767,3
1.61615E+18,-366.8124958,0.035259529,0.120728174,-0.026696944,3
1.61615E+18,-366.8025627,-0.023169863,0.009064181,-0.062092299,3
1.61615E+18,-366.7926299,-0.057938394,-0.099697223,-0.127047075,3
1.61615E+18,-366.7826978,-0.040092941,-0.213437291,-0.192115979,3
1.61615E+18,-366.7727649,-0.009062427,-0.317734117,-0.225337974,3
1.61615E+18,-366.7628318,0.034102176,-0.406043318,-0.242103432,3
1.61615E+18,-366.7528987,0.058913377,-0.453748634,-0.209162719,3
1.61615E+18,-366.7429656,0.087293668,-0.430951111,-0.158637414,3
1.61615E+18,-366.733033,0.102237555,-0.352491542,-0.113513777,3
1.61615E+18,-366.7230999,0.111706809,-0.237690566,-0.052271299,3
1.61615E+18,-366.7131667,0.119911743,-0.119933882,0.015619803,3
1.61615E+18,-366.7032336,0.12176117,-0.006275427,0.096319682,3
1.61615E+18,-366.693301,0.094974286,0.088634196,0.138890064,3
1.61615E+18,-366.6833679,0.067654317,0.159284845,0.164839721,3
1.61615E+18,-366.6734358,0.024385084,0.215295267,0.16891499,3
1.61615E+18,-366.6635027,-0.021220483,0.242957181,0.163358305,3
1.61615E+18,-366.6535698,-0.014611878,0.242558829,0.125523098,3
1.61615E+18,-366.643637,0.010514964,0.222006163,0.081889763,3
1.61615E+18,-366.6337039,0.051627896,0.184529834,0.043522294,3
1.61615E+18,-366.6237708,0.09643033,0.116646385,0.009131004,3
1.61615E+18,-366.6138376,0.118432903,0.033007294,-0.036233706,3
1.61615E+18,-366.603905,0.08248656,-0.039807037,-0.047974853,3
1.61615E+18,-366.5939719,0.022095512,-0.089411099,-0.06108388,3
1.61615E+18,-366.5840388,-0.038796471,-0.131410823,-0.053449294,3
1.61615E+18,-366.5741069,-0.089378658,-0.156523564,-0.055966354,3
1.61615E+18,-366.5641738,-0.097511111,-0.144486943,-0.038740503,3
1.61615E+18,-366.5542407,-0.077248659,-0.118072983,-0.023011001,3
1.61615E+18,-366.5443079,-0.017335166,-0.094616704,-0.003907392,3
1.61615E+18,-366.5343748,0.024323709,-0.078044048,-0.010941551,3
1.61615E+18,-366.5244419,0.039226679,-0.067907269,-0.017827233,3
1.61615E+18,-366.5145088,0.048009121,-0.069469038,-0.013855507,3
1.61615E+18,-366.5045759,0.07655717,-0.08978512,0.003464808,3
1.61615E+18,-366.4946465,0.073864278,-0.103187257,0.019203088,3
1.61615E+18,-366.4847134,0.076408117,-0.084084058,0.016843345,3
1.61615E+18,-366.4747803,0.068445175,-0.044993865,-0.003596782,3
1.61615E+18,-366.4648484,0.064469257,-0.011228227,-0.00114159,3
1.61615E+18,-366.4549155,0.042811552,0.03730521,-0.021117479,3
1.61615E+18,-366.4449824,0.018442835,0.071916578,-0.025639861,3
1.61615E+18,-366.4350493,0.041379474,0.074983199,0.030505284,3
1.61615E+18,-366.4251165,0.017500585,0.133339453,0.044994815,3
1.61615E+18,-366.4151833,0.043189153,0.166727124,0.067314819,3
1.61615E+18,-366.4052505,0.025016368,0.196889623,0.098836934,3
1.61615E+18,-366.3953174,-0.023055881,0.233835644,0.103833391,3
1.61615E+18,-366.3853843,-0.027849545,0.240824845,0.113576074,3
1.61615E+18,-366.3754514,-0.03066168,0.236230065,0.109895851,3
1.61615E+18,-366.3655186,-0.004229016,0.217286806,0.087570375,3
1.61615E+18,-366.3555864,0.010254852,0.167096834,0.055138991,3
1.61615E+18,-366.3456533,0.013768413,0.112038452,0.032307858,3
1.61615E+18,-366.3357205,0.015115736,0.072976462,0.017903284,3
1.61615E+18,-366.3257874,0.01760463,0.033550168,-0.013136444,3
1.61615E+18,-366.3158545,0.01299626,-0.006104308,-0.015645085,3
1.61615E+18,-366.3059214,0.019274025,-0.029319326,-0.022581304,3
1.61615E+18,-366.2959885,0.030149055,-0.054064695,-0.016904346,3
1.61615E+18,-366.2860554,0.067342767,-0.070316011,0.010129636,3
1.61615E+18,-366.2761226,0.086142744,-0.070323317,0.028647217,3
1.61615E+18,-366.2661895,0.086567692,-0.04970533,0.037129844,3
1.61615E+18,-366.2562576,0.074176997,-0.037235067,0.062054442,3
1.61615E+18,-366.2463245,0.057958852,-0.015288316,0.06842848,3
1.61615E+18,-366.2363914,0.059340662,-0.009224998,0.066397714,3
1.61615E+18,-366.2264583,0.048804071,-0.008882541,0.043769985,3
1.61615E+18,-366.2165254,0.057776482,-0.012497809,0.003129192,3
1.61615E+18,-366.2065925,0.047186699,-0.02607501,-0.056283722,3
1.61615E+18,-366.1966594,0.052187868,-0.040778001,-0.116531015,3
1.61615E+18,-366.1867263,0.052702247,-0.059856576,-0.173184666,3
1.61615E+18,-366.1767935,0.082844287,-0.091507706,-0.200900064,3
1.61615E+18,-366.1668606,0.095606154,-0.09287724,-0.229105802,3
1.61615E+18,-366.1569275,0.11448095,-0.082933208,-0.227263426,3
1.61615E+18,-366.1469954,0.119711252,-0.048293856,-0.21989929,3
1.61615E+18,-366.1370623,0.103494861,-0.034514483,-0.197411053,3
1.61615E+18,-366.1271296,0.069746321,-0.010812413,-0.147241247,3
1.61615E+18,-366.1171965,0.015483985,-0.009687208,-0.095765107,3
1.61615E+18,-366.1072634,-0.017249241,-0.003163067,-0.034028426,3
1.61615E+18,-366.0973303,-0.04475801,0.00636274,0.011119716,3
1.61615E+18,-366.0873975,-0.062569561,0.008526348,0.060837276,3
1.61615E+18,-366.0774646,-0.047640872,0.004013546,0.133063961,3
1.61615E+18,-366.0675315,-0.00539806,0.009624591,0.192529656,3
1.61615E+18,-366.0575984,0.03723989,0.037361324,0.201456401,3
1.61615E+18,-366.0476653,0.061993223,0.038555064,0.208334963,3
1.61615E+18,-366.0377334,0.034235447,0.042170624,0.190246604,3
1.61615E+18,-366.0278005,0.015187048,0.033510932,0.171540534,3
1.61615E+18,-366.0178674,0.017607553,0.018326076,0.144536235,3
1.61615E+18,-366.0079343,0.02488485,0.005480696,0.114460839,3
1.61615E+18,-365.9980015,0.062156304,0.006494769,0.07247138,3
1.61615E+18,-365.9880686,0.083438746,0.003754384,0.024905144,3
1.61615E+18,-365.9781355,0.094988899,0.005763386,-0.019795592,3
1.61615E+18,-365.9682024,0.080795538,0.020024186,-0.045058253,3
1.61615E+18,-365.9582693,0.047267363,0.028390667,-0.066759487,3
1.61615E+18,-365.9483367,0.030049686,0.032594548,-0.066729211,3
1.61615E+18,-365.9384045,0.020752865,0.021114392,-0.076186464,3
1.61615E+18,-365.9284714,0.025849312,0.037020986,-0.067430719,3
1.61615E+18,-365.9185383,0.050551207,0.047860798,-0.055588662,3
1.61615E+18,-365.9086055,0.059241878,0.061845412,-0.051942012,3
1.61615E+18,-365.8986726,0.04731354,0.074925331,-0.047028375,3
1.61615E+18,-365.8887395,0.04871347,0.066557608,-0.028402421,3
1.61615E+18,-365.8788064,0.047275546,0.053451823,-0.027334746,3
1.61615E+18,-365.8688733,0.046290042,0.035311333,-0.028006471,3
1.61615E+18,-365.8589404,0.011185411,0.021655367,-0.004496818,3
1.61615E+18,-365.8490076,-0.011322774,0.022198242,0.001441038,3
1.61615E+18,-365.8390745,-0.026042788,0.021488632,0.014674495,3
1.61615E+18,-365.8291426,-0.009629414,0.001078881,0.037136694,3
1.61615E+18,-365.8192095,0.020385785,0.000709975,0.052087641,3
1.61615E+18,-365.8092764,0.062810969,0.008779957,0.04172583,3
1.61615E+18,-365.7993435,0.103878308,0.005253464,0.039039687,3
1.61615E+18,-365.7894104,0.109793669,0.008387451,0.044112735,3
1.61615E+18,-365.7794775,0.085213939,-0.006124109,0.036002658,3
1.61615E+18,-365.7695444,0.059909987,-0.00959858,0.044261568,3
1.61615E+18,-365.7596116,0.040469373,-0.032986397,0.04513731,3
1.61615E+18,-365.7496785,0.011948212,-0.045848217,0.037271874,3
1.61615E+18,-365.7397454,-0.004482698,-0.04897592,0.027826566,3
1.61615E+18,-365.7298125,-0.007484803,-0.03500234,0.019694095,3
1.61615E+18,-365.7198804,-0.007371406,-0.036652591,0.018290165,3
1.61615E+18,-365.7099475,0.015889059,-0.032075639,0.016314664,3
1.61615E+18,-365.7000146,0.047073886,-0.026621903,0.009572386,3
1.61615E+18,-365.6900815,0.043964229,0.004954773,0.006080452,3
1.61615E+18,-365.6801484,0.042834349,0.017191739,-0.004123345,3
1.61615E+18,-365.6702153,0.061802084,0.033479441,-0.006856807,3
1.61615E+18,-365.6602825,0.069439447,0.034501405,-0.008669757,3
1.61615E+18,-365.6503496,0.062128247,0.026386852,-0.037395098,3
1.61615E+18,-365.6404165,0.073245269,0.019762101,-0.055131356,3
1.61615E+18,-365.6304834,0.039928106,0.00017258,-0.063864953,3
1.61615E+18,-365.6205513,0.026653029,-0.020968846,-0.05639922,3
1.61615E+18,-365.6106187,0.008111995,-0.031318683,-0.045689647,3
1.61615E+18,-365.6006855,0.00403437,-0.045104632,-0.038798061,3
1.61615E+18,-365.5907524,-0.0008195,-0.052512789,-0.030497083,3
1.61615E+18,-365.5808193,0.008507716,-0.047301338,-0.017896307,3
1.61615E+18,-365.5708865,0.023197336,-0.033271717,-0.001262805,3
1.61615E+18,-365.5609536,0.037284898,-0.00098565,0.035687235,3
1.61615E+18,-365.5510205,0.041945875,0.019955066,0.070483841,3
1.61615E+18,-365.5410874,0.048143561,0.050486398,0.094129542,3
1.61615E+18,-365.5311545,0.065156655,0.06992723,0.114059145,3
1.61615E+18,-365.5212227,0.066366615,0.069615169,0.121586106,3
1.61615E+18,-365.5112896,0.066416884,0.062310399,0.118252906,3
1.61615E+18,-365.5013564,0.039272272,0.048297875,0.10176369,3
1.61615E+18,-365.4914238,0.028158758,0.029317572,0.093863146,3
1.61615E+18,-365.481491,0.009085224,0.02265753,0.068069236,3
1.61615E+18,-365.4715581,-0.002986322,0.004799582,0.039679739,3
1.61615E+18,-365.461625,0.00585048,0.007846476,0.027946485,3
1.61615E+18,-365.4516919,0.032308863,-0.009659005,0.014506573,3
1.61615E+18,-365.441759,0.04512509,-0.007326763,-0.002158128,3
1.61615E+18,-365.4318262,0.063181556,-0.010711291,-0.006549623,3
1.61615E+18,-365.4218931,0.060897244,-0.007640724,-0.017328919,3
1.61615E+18,-365.4119609,0.063146484,-0.013913009,-0.03133125,3
1.61615E+18,-365.4020281,0.049380409,-0.01189071,-0.049344498,3
1.61615E+18,-365.392095,0.040743514,-0.007813962,-0.043978404,3
1.61615E+18,-365.3821619,0.031951136,-0.012267507,-0.041031299,3
1.61615E+18,-365.372229,0.018522914,0.006981603,-0.039299489,3
1.61615E+18,-365.3622959,0.004196867,0.009276874,-0.039286739,3
1.61615E+18,-365.352363,-0.005194062,0.000438099,-0.040299569,3
1.61615E+18,-365.3424299,0.002156886,0.010152561,-0.038484538,3
1.61615E+18,-365.3324971,0.02000117,0.014153613,-0.035446449,3
1.61615E+18,-365.322564,0.050091188,-0.005762071,-0.021316216,3
1.61615E+18,-365.3126309,0.076415131,-0.018517069,-0.020658958,3
1.61615E+18,-365.302699,0.066224577,-0.033503626,-0.025022085,3
1.61615E+18,-365.2927659,0.041926586,-0.038198579,-0.009413232,3
1.61615E+18,-365.282833,0.018207857,-0.026659751,0.003985891,3
1.61615E+18,-365.2729001,0.032499417,-0.017155206,0.034348625,3
1.61615E+18,-365.262967,0.052760115,-0.001683277,0.05812566,3
1.61615E+18,-365.2530339,0.069437693,0.031349736,0.030817419,3
1.61615E+18,-365.2431011,0.081974519,0.055694195,-0.009462533,3
1.61615E+18,-365.233168,0.074213237,0.049566214,-0.03453222,3
1.61615E+18,-365.2232351,0.037186114,0.03981785,-0.039268071,3
1.61615E+18,-365.213302,-0.004434768,0.021393866,-0.035906686,3
1.61615E+18,-365.2033699,-0.011934768,-0.009916049,-0.015878428,3
1.61615E+18,-365.1934368,0.000721885,-0.018130042,-0.003513324,3
1.61615E+18,-365.1835042,0.041133974,-0.031602395,0.028636202,3
1.61615E+18,-365.173571,0.074146602,-0.031921398,0.069047269,3
1.61615E+18,-365.1636379,0.059659227,-0.026721418,0.068372658,3
1.61615E+18,-365.1537048,0.038420624,-0.018774405,0.068901066,3
1.61615E+18,-365.1437722,0.039651042,-0.008394319,0.080484317,3
1.61615E+18,-365.1338391,0.05095628,0.011234218,0.083880718,3
1.61615E+18,-365.123906,0.035100539,0.034267888,0.074600118,3
1.61615E+18,-365.1139729,0.005684475,0.044634165,0.046939007,3
1.61615E+18,-365.104041,0.002069207,0.048541693,0.026627913,3
1.61615E+18,-365.0941082,0.007593524,0.029480873,0.002931542,3
1.61615E+18,-365.084175,0.007119477,-0.016292379,-0.040786211,3
1.61615E+18,-365.0742419,0.028147067,-0.050069487,-0.063195767,3
1.61615E+18,-365.0643088,0.063193246,-0.078171327,-0.078080534,3
1.61615E+18,-365.054376,0.083505966,-0.072996993,-0.080447547,3
1.61615E+18,-365.0444431,0.088383217,-0.044035395,-0.066157457,3
1.61615E+18,-365.03451,0.104179921,-0.009804186,-0.023884861,3
1.61615E+18,-365.0245769,0.102305359,0.029042408,0.000242997,3
1.61615E+18,-365.0146438,0.086853523,0.042928164,0.030099754,3
1.61615E+18,-365.0047112,0.015364158,0.045857423,0.040187524,3
1.61615E+18,-364.9947791,-0.052186699,0.031327597,0.051650108,3
1.61615E+18,-364.9848459,-0.061334466,-0.003832637,0.040973213,3
1.61615E+18,-364.9749128,-0.037267947,-0.021545623,0.024717476,3
1.61615E+18,-364.96498,-0.002317629,-0.048662397,-0.001287629,3
1.61615E+18,-364.9550471,0.037950084,-0.063430927,-0.014978775,3
1.61615E+18,-364.945114,0.071233345,-0.058603653,-0.013730666,3
1.61615E+18,-364.9351809,0.076348496,-0.05055201,-0.009630153,3
1.61615E+18,-364.925248,0.070216861,-0.02530366,-0.000126366,3
1.61615E+18,-364.9153152,0.062159227,-0.004176701,0.004827859,3
1.61615E+18,-364.9053821,0.03696458,0.012834055,0.008659491,3
1.61615E+18,-364.895449,0.028435236,0.034764732,0.01761159,3
1.61615E+18,-364.8855171,0.03535013,0.038397243,0.022550818,3
1.61615E+18,-364.875584,0.035689738,0.031462037,0.021205632,3
1.61615E+18,-364.8656509,0.032120647,0.03159918,0.010150277,3
1.61615E+18,-364.855718,0.044991234,0.026563378,0.000462138,3
1.61615E+18,-364.8457849,0.038853755,0.011373992,-0.006740889,3
1.61615E+18,-364.8358521,0.042421092,0.00395166,-0.012441969,3
1.61615E+18,-364.8259189,0.03895137,0.02046908,-0.018969233,3
1.61615E+18,-364.8159861,0.030530163,0.028302769,-0.002423373,3
1.61615E+18,-364.806053,0.029295653,0.028812618,0.013836674,3
1.61615E+18,-364.7961201,0.034969022,0.032815059,0.029787016,3
1.61615E+18,-364.786188,0.025846389,0.031727921,0.029610125,3
1.61615E+18,-364.7762549,0.035588031,0.018241028,0.035593565,3
1.61615E+18,-364.766322,0.043872459,0.00601663,0.02851053,3
1.61615E+18,-364.7563892,0.032861236,-0.008222031,0.03344806,3
1.61615E+18,-364.7464561,0.02333236,-0.025607393,0.02179894,3
1.61615E+18,-364.7365229,0.029511926,-0.032057519,0.015681836,3
1.61615E+18,-364.7265901,0.031634325,-0.048476154,-0.000854023,3
1.61615E+18,-364.716657,0.035371758,-0.05254523,-0.005433314,3
1.61615E+18,-364.7067241,0.040877369,-0.057628525,-0.007683367,3
1.61615E+18,-364.696791,0.040684477,-0.046047465,-0.007883383,3
1.61615E+18,-364.6868589,0.047694064,-0.030547333,-0.013730036,3
1.61615E+18,-364.6769258,0.061899115,-0.021022987,-0.024426357,3
1.61615E+18,-364.6669932,0.058638651,-0.007443302,-0.02757988,3
1.61615E+18,-364.6570601,0.051035775,-0.003377367,-0.019955632,3
1.61615E+18,-364.647127,0.032368484,0.012379224,-0.016270021,3
1.61615E+18,-364.6371938,0.006220482,0.021118776,-0.015162187,3
1.61615E+18,-364.6272612,0.010600889,0.025458339,-0.001689013,3
1.61615E+18,-364.6173281,0.015421441,0.036444209,0.000702869,3
1.61615E+18,-364.607395,0.039992403,0.017548808,0.004000906,3
1.61615E+18,-364.5974619,0.04971008,-0.001784107,0.002356829,3
1.61615E+18,-364.5875291,0.041778702,-0.019907062,-0.008081088,3
1.61615E+18,-364.5775972,0.020808395,-0.025937428,-0.004876904,3
1.61615E+18,-364.5676641,0.015232056,8.21253E-05,-0.000837876,3
1.61615E+18,-364.557731,0.005902502,-0.00112294,0.00944454,3
1.61615E+18,-364.5477979,0.032039983,0.001482494,0.024344734,3
1.61615E+18,-364.5378652,0.027056349,-0.002419555,0.034967305,3
1.61615E+18,-364.5279321,0.028536943,0.004618819,0.023893994,3
1.61615E+18,-364.517999,0.025396307,0.003119155,0.018912955,3
1.61615E+18,-364.5080659,0.031572365,-0.004686843,0.004613668,3
1.61615E+18,-364.4981333,0.047487143,-0.015824177,0.001199731,3
1.61615E+18,-364.4882002,0.081021164,-0.023190321,-0.016745547,3
1.61615E+18,-364.4782681,0.0955553,-0.031348932,-0.030106403,3
1.61615E+18,-364.468335,0.07042612,-0.027821635,-0.026309641,3
1.61615E+18,-364.4584021,0.037642041,-0.007997794,-0.023501488,3
1.61615E+18,-364.448469,0.029085809,-0.009851094,-0.02032631,3
1.61615E+18,-364.4385361,0.012457331,-0.005071093,-0.017997429,3
1.61615E+18,-364.428603,0.007791677,0.006825024,0.000745941,3
1.61615E+18,-364.4186699,0.013607085,0.017959143,0.013200002,3
1.61615E+18,-364.4087371,0.032767128,0.043241468,0.018726401,3
1.61615E+18,-364.3988042,0.044753918,0.05278766,0.03368691,3
1.61615E+18,-364.3888711,0.050473465,0.046879971,0.036215278,3
1.61615E+18,-364.378939,0.035108723,0.035374753,0.042548517,3
1.61615E+18,-364.3690061,0.00838672,0.015327114,0.048597807,3
1.61615E+18,-364.359073,0.009072949,0.0008667,0.021668245,3
1.61615E+18,-364.3491401,0.016487024,-0.024176629,0.02345858,3
1.61615E+18,-364.339207,0.021047464,-0.037340427,0.016612934,3
1.61615E+18,-364.3292742,0.040205169,-0.03274762,0.002515033,3
1.61615E+18,-364.3193411,0.069801266,-0.019987799,-0.001667696,3
1.61615E+18,-364.309408,0.082466102,-0.013157222,0.003658102,3
1.61615E+18,-364.2994751,0.063699442,0.002156228,0.002398622,3
1.61615E+18,-364.289542,0.037774143,0.004631386,-0.005491821,3
1.61615E+18,-364.2796101,0.029539983,0.006381006,-0.001667422,3
1.61615E+18,-364.269677,-0.001239771,0.011189429,0.009294154,3
1.61615E+18,-364.2597439,-0.007459084,0.001401757,-0.000194902,3
1.61615E+18,-364.249811,-0.002160977,-0.002732055,0.003934983,3
1.61615E+18,-364.2398782,0.02182897,-0.010664602,-0.001442582,3
1.61615E+18,-364.2299451,0.040561727,-0.013399434,-0.014994831,3
1.61615E+18,-364.220012,0.055374097,-0.010096374,-0.017917715,3
1.61615E+18,-364.2100791,0.070161916,-0.014346724,0.002054357,3
1.61615E+18,-364.200146,0.058920976,-0.013624328,0.006541202,3
1.61615E+18,-364.1902131,0.040198739,-0.004785481,0.005750289,3
1.61615E+18,-364.180281,0.036015316,-0.00470394,0.011227898,3
1.61615E+18,-364.1703479,0.051303486,0.005160525,0.018264172,3
1.61615E+18,-364.1604153,0.042348026,0.011507409,0.002171316,3
1.61615E+18,-364.1504822,0.040887891,0.001088087,-0.008300284,3
1.61615E+18,-364.1405491,0.025641806,0.000921133,-0.013926837,3
1.61615E+18,-364.130616,0.02519114,-0.022321722,-0.015873952,3
1.61615E+18,-364.1206829,0.022943653,-0.021900355,-0.015301066,3
1.61615E+18,-364.1107502,0.021619711,-0.010297157,-0.023248299,3
1.61615E+18,-364.1008171,0.028200259,-0.006765329,-0.008769381,3
1.61615E+18,-364.090884,0.044039048,0.003802753,-0.007099347,3
1.61615E+18,-364.0809509,0.046560091,0.018903365,-0.000611227,3
1.61615E+18,-364.071019,0.041312254,0.015140871,0.008419746,3
1.61615E+18,-364.0610862,0.045790276,0.023042218,0.014789354,3
1.61615E+18,-364.0511531,0.029061259,0.021033655,0.015739585,3
1.61615E+18,-364.04122,0.026133389,0.007026245,0.018696956,3
1.61615E+18,-364.0312869,0.022148119,1.6805E-05,0.010400508,3
1.61615E+18,-364.0213542,0.033715223,-0.004615677,0.010336046,3
1.61615E+18,-364.0114211,0.044978959,-0.00732932,0.005972425,3
1.61615E+18,-364.001488,0.036323944,-0.014632044,-0.006220455,3
1.61615E+18,-363.9915549,0.043802317,-0.013750951,-0.00155512,3
1.61615E+18,-363.9816223,0.038977089,-0.017801687,0.005449826,3
1.61615E+18,-363.9716902,0.021880408,-0.010012202,0.008273688,3
1.61615E+18,-363.9617571,0.015286416,-0.008458982,0.006981438,3
1.61615E+18,-363.951824,0.017096096,-0.006001505,0.010659542,3
1.61615E+18,-363.9418911,0.041059156,0.00828041,0.022840467,3
1.61615E+18,-363.931958,0.048726329,0.013283625,0.025853823,3
1.61615E+18,-363.9220251,0.059231357,-0.000277136,0.021404461,3
1.61615E+18,-363.912092,0.049532969,-0.010931875,0.008341812,3
1.61615E+18,-363.9021589,0.040718964,-0.01526362,0.002111942,3
1.61615E+18,-363.8922261,0.019324294,-0.017108298,-0.001687168,3
1.61615E+18,-363.8822939,0.017089666,-0.017580665,-0.004888576,3
1.61615E+18,-363.8723611,0.012011925,-0.019896468,-0.007699889,3
1.61615E+18,-363.862428,0.005412673,-0.007534414,-0.009584497,3
1.61615E+18,-363.8524951,0.014805355,-0.007253844,-0.011106774,3
1.61615E+18,-363.842562,0.027058103,0.002063143,-0.008777902,3
1.61615E+18,-363.8326292,0.044257075,-0.006489435,-0.013783245,3
1.61615E+18,-363.822696,0.05517419,-0.00285159,-0.016457707,3
1.61615E+18,-363.8127632,0.069527125,-0.000837912,-0.019329956,3
1.61615E+18,-363.8028301,0.051117024,-0.006711042,-0.011290807,3
1.61615E+18,-363.7928972,0.040645899,-0.001976926,-0.003032911,3
1.61615E+18,-363.7829651,0.037052258,-0.000807809,0.006120282,3
1.61615E+18,-363.7730322,0.021796237,0.003701631,0.009680605,3
1.61615E+18,-363.7630991,0.025089433,0.004779709,0.016012895,3
1.61615E+18,-363.753166,0.039148938,0.00078136,0.02234271,3
1.61615E+18,-363.7432329,0.042293666,0.012841361,0.008172054,3
1.61615E+18,-363.7333,0.028958383,0.012695596,0.013034327,3
1.61615E+18,-363.7233672,0.050649991,0.013285087,0.021227113,3
1.61615E+18,-363.7134341,0.038532267,0.007562325,0.015630627,3
1.61615E+18,-363.703501,0.039426001,0.003270838,0.01220763,3
1.61615E+18,-363.6935681,0.038384383,0.001789148,-0.001108053,3
1.61615E+18,-363.6836362,0.029715339,-0.005635741,-0.001234337,3
1.61615E+18,-363.6737031,0.033764907,-0.014271029,-0.003725176,3
1.61615E+18,-363.66377,0.019846856,-0.013143998,-0.01108922,3
1.61615E+18,-363.6538369,0.043324762,-0.020064664,-0.003508182,3
1.61615E+18,-363.6439043,0.043290276,-0.015925591,-0.012260365,3
1.61615E+18,-363.6339712,0.049999418,0.001799962,-0.001286715,3
1.61615E+18,-363.6240381,0.064175243,0.015639102,-0.004117884,3
1.61615E+18,-363.614105,0.057865914,0.029032764,-0.005602624,3
1.61615E+18,-363.6041721,0.05321195,0.01920812,-0.001849875,3
1.61615E+18,-363.5942393,0.03586451,0.00145714,0.012030712,3
1.61615E+18,-363.5843071,0.00805062,-0.00964768,0.00333899,3
1.61615E+18,-363.574374,-0.022008418,-0.030858226,0.006230958,3
1.61615E+18,-363.5644409,-0.005250176,-0.021418928,0.001428288,3
1.61615E+18,-363.5545081,0.015371757,-0.013661665,9.95423E-05,3
1.61615E+18,-363.5445752,0.048089785,0.001903715,0.007281088,3
1.61615E+18,-363.5346421,0.060458853,0.007238135,0.015058864,3
1.61615E+18,-363.524709,0.070008771,0.002921075,0.017289929,3
1.61615E+18,-363.5147759,0.062691142,0.00036781,0.006364347,3
1.61615E+18,-363.5048433,0.031160277,-0.000274433,0.008405845,3
1.61615E+18,-363.4949058,0.027932548,-0.011874343,-0.003336551,3
1.61615E+18,-363.4849739,0.012717443,-0.028541181,-0.005532655,3
1.61615E+18,-363.4750408,0.026657121,-0.027825726,-0.006142083,3
1.61615E+18,-363.4651079,0.042061611,-0.023996304,-0.011626159,3
1.61615E+18,-363.4551748,0.061491118,-0.025291385,-0.006249187,3
1.61615E+18,-363.4452417,0.066989716,-0.017983108,-0.011799871,3
1.61615E+18,-363.4353088,0.057531567,-0.011418927,-0.012882095,3
1.61615E+18,-363.425376,0.058258128,-0.006306553,-0.010237727,3
1.61615E+18,-363.4154429,0.052749009,0.008388254,-0.002555694,3
1.61615E+18,-363.4055098,0.043213703,0.023922143,0.0059139,3
1.61615E+18,-363.3955767,0.0089917,0.02963168,0.026164314,3
1.61615E+18,-363.3856448,-0.017607553,0.025970234,0.034781537,3
1.61615E+18,-363.3757117,-0.018788872,0.022691505,0.052638425,3
1.61615E+18,-363.3657788,0.002928455,0.007309958,0.039379678,3
1.61615E+18,-363.3558457,0.021963995,-0.002577376,0.017631847,3
1.61615E+18,-363.3459128,0.056272507,-0.01316073,0.006748652,3
1.61615E+18,-363.3359797,0.082634444,-0.014692104,0.002311099,3
1.61615E+18,-363.3260469,0.102406482,-0.017319457,-0.020725228,3
1.61615E+18,-363.3161138,0.089684947,-0.014295579,-0.01866151,3
1.61615E+18,-363.3061809,0.06139701,-0.016715353,-0.00601853,3
1.61615E+18,-363.2962478,0.027861236,-0.008110095,-0.002744075,3
1.61615E+18,-363.2863157,0.010180618,-0.014184593,-0.013941833,3
1.61615E+18,-363.2763828,-0.013039514,-0.008671967,-0.012162028,3
1.61615E+18,-363.26645,0.005637714,-0.003675985,-0.018468225,3
1.61615E+18,-363.2565168,0.0268845,-0.00908157,-0.008668998,3
1.61615E+18,-363.2465837,0.052034723,-0.007887611,-0.003749498,3
1.61615E+18,-363.2366509,0.089772625,0.002364903,4.41131E-06,3
1.61615E+18,-363.2267178,0.081573537,0.004631386,-0.004907801,3
1.61615E+18,-363.2167849,0.058251113,0.002874825,-0.012775566,3
1.61615E+18,-363.2068518,0.003049451,0.009685455,0.006183794,3
1.61615E+18,-363.1969197,-0.022376082,0.002068988,0.008632146,3
1.61615E+18,-363.1869866,-0.008434651,-0.002322598,0.016000593,3
1.61615E+18,-363.177054,0.029160044,-0.000601546,0.005753604,3
1.61615E+18,-363.1671208,0.072563132,-0.000471636,-0.006170177,3
1.61615E+18,-363.1571877,0.090047935,-0.014267229,-0.012907878,3
1.61615E+18,-363.1472546,0.070261285,-0.014085078,-0.013945834,3
1.61615E+18,-363.137322,0.033878889,-0.02007102,0.006842979,3
1.61615E+18,-363.1273889,0.020986089,-0.012127076,0.017024419,3
1.61615E+18,-363.1174558,0.003770751,-0.005572905,0.006755959,3
1.61615E+18,-363.1075227,0.004812369,-0.004707082,0.005797288,3
1.61615E+18,-363.0975908,0.007207739,0.001127616,0.014511834,3
1.61615E+18,-363.087658,0.019929858,-0.000448255,0.011728432,3
1.61615E+18,-363.0777249,0.033122517,0.002836904,-0.00040121,3
1.61615E+18,-363.0677917,0.044371641,-0.012191373,-0.009896385,3
1.61615E+18,-363.0578586,0.075525489,-0.014461583,-0.013303572,3
1.61615E+18,-363.0479258,0.068810501,-0.007861966,-0.008688735,3
1.61615E+18,-363.0379929,0.052035892,-0.000460603,-0.009661252,3
1.61615E+18,-363.0280598,0.043339376,0.000650719,-0.003413334,3
1.61615E+18,-363.0181267,0.029258243,-0.000808467,0.006306096,3
1.61615E+18,-363.0081948,0.019202129,0.009861761,0.016574429,3
1.61615E+18,-362.9982617,0.001080781,0.019045184,0.014705959,3
1.61615E+18,-362.9883289,0.022802783,0.024295068,0.002469075,3
1.61615E+18,-362.9783958,0.040494507,0.013779592,-0.00545779,3
1.61615E+18,-362.9684629,0.054292731,0.010221096,-0.011444975,3
1.61615E+18,-362.9585298,0.052359133,0.002710793,-0.006762964,3
1.61615E+18,-362.9485969,0.048773091,-0.009088219,-0.021011407,3
1.61615E+18,-362.9386638,0.037692894,-0.013770094,-0.011498998,3
1.61615E+18,-362.9287307,0.017325229,-0.012584464,-0.010908676,3
1.61615E+18,-362.9187979,0.017308278,-0.014042115,0.011060058,3
1.61615E+18,-362.9088657,0.020437223,-0.009000176,0.011637255,3
1.61615E+18,-362.8989329,0.040037996,0.001488704,0.023679685,3
1.61615E+18,-362.8889998,0.042135845,0.006918401,0.020283302,3
1.61615E+18,-362.8790669,0.028818098,0.002316241,0.020051019,3
1.61615E+18,-362.8691338,0.042739656,-0.001754735,0.01879921,3
1.61615E+18,-362.8592007,0.039160044,-0.002952566,0.009430868,3
1.61615E+18,-362.8492678,0.032438042,-0.008012845,0.004981305,3
1.61615E+18,-362.839335,0.03798457,-0.00497282,0.007454344,3
1.61615E+18,-362.8294019,0.042633273,0.007168357,0.002631371,3
1.61615E+18,-362.8194697,0.033655017,0.005235197,-0.011484576,3
1.61615E+18,-362.8095366,0.027211832,0.004934315,-0.00987262,3
1.61615E+18,-362.799604,0.026775194,-0.006835472,-0.007985957,3
1.61615E+18,-362.7896709,0.029912908,-0.005963,-0.017744788,3
1.61615E+18,-362.7797378,0.041724926,-0.01050795,-0.018941222,3
1.61615E+18,-362.7698047,0.049216743,-0.013430121,-0.007313191,3
1.61615E+18,-362.7598718,0.055500353,-0.009801263,-0.005369774,3
1.61615E+18,-362.749939,0.028375031,-0.004935776,-0.008624118,3
1.61615E+18,-362.7400059,0.026110593,0.003398849,0.008852821,3
1.61615E+18,-362.7300728,0.01203063,0.026205212,0.011581616,3
1.61615E+18,-362.7201406,0.038078094,0.02530388,0.00841569,3
1.61615E+18,-362.710208,0.06009528,0.003271204,0.00450354,3
1.61615E+18,-362.7002749,0.058154083,-0.019443317,0.007895877,3
1.61615E+18,-362.6903418,0.03407295,-0.039047962,-0.001428471,3
1.61615E+18,-362.6804087,0.012960019,-0.0551606,0.001836504,3
1.61615E+18,-362.6704758,0.007681787,-0.036286681,0.002232316,3
1.61615E+18,-362.660543,0.014040216,-0.012094635,0.018778916,3
