time,seconds_elapsed,z,y,x,label
1.61691E+18,-445.6141472,0.778928609,-0.747276749,-0.66530223,4
1.61691E+18,-445.6041294,1.341812668,-0.194207398,-1.277413699,4
1.61691E+18,-445.5941113,1.420386438,-0.196693662,-1.490564283,4
1.61691E+18,-445.5840923,0.531518029,-0.083869831,-0.864671249,4
1.61691E+18,-445.5740745,-0.910960414,0.071914897,-0.003762275,4
1.61691E+18,-445.5640562,-1.49580496,-0.700301648,-0.191292679,4
1.61691E+18,-445.5540383,-0.984042017,-0.654141369,-0.351323082,4
1.61691E+18,-445.5440193,-0.023168694,-0.239074129,-0.882632291,4
1.61691E+18,-445.5340012,0.455460625,0.364647551,0.0332327,4
1.61691E+18,-445.5239834,-0.101036947,-0.467478396,0.983881712,4
1.61691E+18,-445.5139644,1.440008838,-0.52305123,-0.14810528,4
1.61691E+18,-445.5039463,1.263259356,-0.384089334,-1.543364729,4
1.61691E+18,-445.4939282,-0.225801975,-0.027967327,-1.449967484,4
1.61691E+18,-445.4839104,-0.052205404,0.084930446,-1.609668801,4
1.61691E+18,-445.4738921,0.119398533,0.582205429,-1.415310743,4
1.61691E+18,-445.463873,-2.049268279,1.495147957,-2.222736694,4
1.61691E+18,-445.4538552,-2.72079216,1.688278666,-0.628666444,4
1.61691E+18,-445.4438372,-5.493699123,-0.048458326,0.476772878,4
1.61691E+18,-445.4338184,-6.186931563,4.308598527,-2.664417946,4
1.61691E+18,-445.4238003,1.001769397,6.906197438,-2.717110841,4
1.61691E+18,-445.413782,3.448866781,8.013208248,0.61542147,4
1.61691E+18,-445.4037644,3.481228251,5.818339073,1.254453095,4
1.61691E+18,-445.3937451,3.242255828,2.597731013,0.733460698,4
1.61691E+18,-445.3837275,1.267912734,0.312986922,0.857093653,4
1.61691E+18,-445.3737095,-0.891219356,-3.287202639,0.97993692,4
1.61691E+18,-445.3636914,-0.730903707,-5.827721234,1.349747699,4
1.61691E+18,-445.3536724,2.041483616,-6.161271052,1.966539727,4
1.61691E+18,-445.3436543,5.067075885,-4.155333965,2.496198976,4
1.61691E+18,-445.3336365,5.816120813,-2.735594592,2.311902293,4
1.61691E+18,-445.3236182,3.887279825,-1.984056679,2.232279744,4
1.61691E+18,-445.3135994,2.020209358,-0.61888827,1.613797425,4
1.61691E+18,-445.3035813,2.20859141,0.117822662,0.787292387,4
1.61691E+18,-445.2935632,1.736853604,-0.120591542,-1.103750785,4
1.61691E+18,-445.2835454,1.30242466,0.55763096,-2.202361576,4
1.61691E+18,-445.2735264,0.047011927,0.157455,-1.582466467,4
1.61691E+18,-445.2635083,0.572666032,-0.072281977,-0.6170631,4
1.61691E+18,-445.2534902,1.698620611,0.856681127,-1.675368331,4
1.61691E+18,-445.2434724,1.653160591,0.8731512,-0.149982618,4
1.61691E+18,-445.2334534,1.701264988,1.26174369,0.767602767,4
1.61691E+18,-445.2234353,2.892399604,0.477928186,0.321676132,4
1.61691E+18,-445.2134172,4.358769795,-0.339397959,-0.64386299,4
1.61691E+18,-445.2033992,4.279427962,-0.283614697,-0.797038559,4
1.61691E+18,-445.1933801,4.42555785,-0.148626965,-0.746466383,4
1.61691E+18,-445.1833623,4.404940594,0.687508217,0.996562622,4
1.61691E+18,-445.1733442,5.17081683,1.098701538,2.057206086,4
1.61691E+18,-445.1633262,4.627971351,1.382452429,1.360400902,4
1.61691E+18,-445.1533071,3.962932155,1.259042469,0.451506773,4
1.61691E+18,-445.1432893,4.450740807,0.864560482,0.37534284,4
1.61691E+18,-445.1332712,5.689352628,1.683972201,0.452265629,4
1.61691E+18,-445.1232522,6.701245944,3.47979208,-0.003367431,4
1.61691E+18,-445.1132341,5.399358459,4.554934756,-0.764155988,4
1.61691E+18,-445.1032163,3.668179978,3.698117436,-1.501397957,4
1.61691E+18,-445.0931985,3.830515736,4.023413804,-1.926654583,4
1.61691E+18,-445.0831794,4.158558772,4.028607574,-1.173423017,4
1.61691E+18,-445.0731614,4.003844011,3.007636925,-0.51136313,4
1.61691E+18,-445.0631433,3.757089849,2.038481512,-0.394460506,4
1.61691E+18,-445.0531252,2.419337855,3.334365664,-0.128177467,4
1.61691E+18,-445.0431064,1.082514081,3.366432535,-0.931413419,4
1.61691E+18,-445.0330884,1.011019456,4.119281532,0.174178171,4
1.61691E+18,-445.0230703,1.635370667,4.568309202,0.334487975,4
1.61691E+18,-445.0130522,1.463752702,3.835587632,-1.671781704,4
1.61691E+18,-445.0030332,1.041838957,3.086561701,-2.138506067,4
1.61691E+18,-444.9930154,0.610522592,2.915072331,-1.947117233,4
1.61691E+18,-444.9829941,0.038159927,3.498874382,-2.89092427,4
1.61691E+18,-444.9729761,-1.687388439,4.128314441,-2.863547019,4
1.61691E+18,-444.962957,-1.396221134,3.619804947,-2.63628257,4
1.61691E+18,-444.952939,-1.734571046,3.743855397,-1.475256093,4
1.61691E+18,-444.9429214,-1.310682786,2.934497455,-1.130962178,4
1.61691E+18,-444.9329033,-1.342927351,2.535662679,-0.598541063,4
1.61691E+18,-444.9228843,-2.006455558,2.748544967,0.183414786,4
1.61691E+18,-444.9128662,-2.567033677,2.742893517,0.324862653,4
1.61691E+18,-444.9028484,-2.424725393,2.912106467,-0.178142398,4
1.61691E+18,-444.8928303,-2.586443895,3.2192017,-0.65027125,4
1.61691E+18,-444.8828113,-3.548897765,3.307893837,-0.84139471,4
1.61691E+18,-444.8727932,-3.986623997,3.328514893,-1.272006141,4
1.61691E+18,-444.8627751,-4.081903403,3.137228058,-1.701482431,4
1.61691E+18,-444.8527573,-3.934078986,2.939242019,-2.449628364,4
1.61691E+18,-444.8427383,-3.594211071,2.728385684,-3.514852872,4
1.61691E+18,-444.8327202,-3.218988935,2.269192009,-4.133163634,4
1.61691E+18,-444.8227021,-2.35212076,2.026907102,-4.943053784,4
1.61691E+18,-444.8126831,-1.239894847,1.541938934,-5.47543749,4
1.61691E+18,-444.8026653,-0.438700045,0.915848186,-5.853346674,4
1.61691E+18,-444.7926472,0.071163202,0.454250665,-6.129668291,4
1.61691E+18,-444.7826292,0.46206923,0.212615453,-6.088223351,4
1.61691E+18,-444.7726104,1.361246267,-0.163157011,-6.262855695,4
1.61691E+18,-444.762592,1.751574788,-0.344701326,-6.210998667,4
1.61691E+18,-444.7525742,2.101442703,-0.753746237,-5.99420359,4
1.61691E+18,-444.7425562,2.927708817,-1.318076987,-6.189327518,4
1.61691E+18,-444.7325371,3.333411433,-1.609975529,-6.715286744,4
1.61691E+18,-444.722519,3.60091203,-1.514153686,-7.277403325,4
1.61691E+18,-444.712501,4.619413366,-2.128950303,-7.989711052,4
1.61691E+18,-444.7024832,5.515332278,-2.951049945,-8.051006356,4
1.61691E+18,-444.6924641,5.516917501,-2.780318116,-7.560228333,4
1.61691E+18,-444.6824463,5.53383941,-2.154945745,-6.8771958,4
1.61691E+18,-444.672428,4.990007258,-1.314439508,-6.174382462,4
1.61691E+18,-444.6624102,4.604878645,-1.012342813,-5.097680282,4
1.61691E+18,-444.6523911,3.798089968,-1.534840501,-3.871864814,4
1.61691E+18,-444.6423733,2.064140854,-2.299414421,-2.579521403,4
1.61691E+18,-444.6323555,3.550482989,-2.114653482,-3.235745424,4
1.61691E+18,-444.6223372,1.309704296,-0.348172217,-2.630192436,4
1.61691E+18,-444.6123181,1.299953302,0.334071211,-2.551183781,4
1.61691E+18,-444.6023003,1.971041714,-0.248155261,-2.65172973,4
1.61691E+18,-444.5922822,2.439027475,-0.771188955,-2.530142747,4
1.61691E+18,-444.5822642,2.303320197,-0.201014155,-2.306156881,4
1.61691E+18,-444.5722451,1.85255562,-0.237882289,-1.823160014,4
1.61691E+18,-444.5622273,1.48243636,-0.101480014,-1.409520176,4
1.61691E+18,-444.5522092,1.342055244,-0.156821962,-0.733593676,4
1.61691E+18,-444.5421902,1.351515147,-0.407276733,-0.203431153,4
1.61691E+18,-444.5321724,1.221298867,-0.028829204,0.548982959,4
1.61691E+18,-444.5221541,0.44168929,0.371425082,1.132080369,4
1.61691E+18,-444.5121362,-0.294229615,-0.097331078,1.752324145,4
1.61691E+18,-444.5021172,-0.326626156,-0.263594238,1.546924322,4
1.61691E+18,-444.4920991,-0.047783495,-0.367047013,1.566707465,4
1.61691E+18,-444.4820813,-0.075321491,-0.754147804,2.286433359,4
1.61691E+18,-444.472063,0.041284781,-1.49143332,2.208706561,4
1.61691E+18,-444.4620442,-0.051194765,-1.672261012,2.064266526,4
1.61691E+18,-444.4520261,-0.645977352,-1.509623057,1.711077357,4
1.61691E+18,-444.4420083,-0.860498055,-1.164175881,1.233498424,4
1.61691E+18,-444.43199,-0.647255117,-0.908521789,1.008899395,4
1.61691E+18,-444.4219712,-1.045645363,-0.59812196,0.660970923,4
1.61691E+18,-444.4119531,-1.757903991,-0.186349086,0.50542731,4
1.61691E+18,-444.4019351,-2.14053085,-0.039002223,0.427040587,4
1.61691E+18,-444.3919175,0.274297418,-0.673241791,-0.407992772,4
1.61691E+18,-444.3818982,0.783285051,-1.165129236,-0.553981498,4
1.61691E+18,-444.3718799,0.579987169,-1.969098764,-1.19756874,4
1.61691E+18,-444.3618623,-0.205692084,-2.525050977,-0.787505884,4
1.61691E+18,-444.351843,-2.161957669,-1.645982662,0.523554211,4
1.61691E+18,-444.3418254,-0.220536602,-1.096243332,-0.374720325,4
1.61691E+18,-444.3318074,4.113223255,-1.806840748,-2.300285651,4
1.61691E+18,-444.3217891,4.605000225,-3.805399999,-1.789743775,4
1.61691E+18,-444.3117703,3.082337069,-3.975680578,-1.669174737,4
1.61691E+18,-444.3017522,1.101888059,-2.500824298,-0.441537899,4
1.61691E+18,-444.2917344,0.862284354,-1.528063554,1.495349909,4
1.61691E+18,-444.2817163,1.054823526,-1.065384083,1.61280783,4
1.61691E+18,-444.2716973,1.297463823,-1.109659278,0.81984485,4
1.61691E+18,-444.2616792,1.31735218,-1.233188627,0.141769062,4
1.61691E+18,-444.2516611,1.184578033,-1.222044133,-0.226124339,4
1.61691E+18,-444.2416433,1.127923833,-0.728354607,-1.038973923,4
1.61691E+18,-444.2316243,0.735818951,-1.515659415,-1.859476944,4
1.61691E+18,-444.2216062,1.414191675,-1.824948067,-1.888472152,4
1.61691E+18,-444.2115881,1.57509477,-1.977503019,-2.027066968,4
1.61691E+18,-444.2015701,1.206982757,-2.614883808,-2.314292257,4
1.61691E+18,-444.1915513,1.224330198,-2.783618911,-1.678415443,4
1.61691E+18,-444.1815332,1.32489602,-2.409365912,-0.936506943,4
1.61691E+18,-444.1715151,1.87884157,-2.034886702,-0.541729627,4
1.61691E+18,-444.1614961,-1.611079106,-1.589299236,-1.303064712,4
1.61691E+18,-444.151478,-0.495514988,-0.860250802,-0.871504602,4
1.61691E+18,-444.1414602,-2.014783241,1.54067286,-0.9480758,4
1.61691E+18,-444.1314421,-3.346954805,2.960418662,-0.291442614,4
1.61691E+18,-444.1214233,-2.601358556,2.730491716,1.325405138,4
1.61691E+18,-444.111405,-1.96854113,0.984913539,3.438642324,4
1.61691E+18,-444.101387,-0.63138827,0.602452975,3.765471309,4
1.61691E+18,-444.0913694,-0.069909403,-0.301441153,2.640027017,4
1.61691E+18,-444.0813501,0.554283403,-2.123668855,-0.510558828,4
1.61691E+18,-444.0713323,-2.135623205,-3.442027875,-0.209129073,4
1.61691E+18,-444.0613142,-4.402532364,-0.778815505,2.175111165,4
1.61691E+18,-444.0512964,-9.029281479,-3.795621825,1.931997406,4
1.61691E+18,-444.0412773,-8.298716796,-5.404152707,1.617463839,4
1.61691E+18,-444.0312593,-6.023837096,-5.643353093,1.444518425,4
1.61691E+18,-444.0212412,-5.565473735,-6.158958099,1.317850193,4
1.61691E+18,-444.0112231,-4.897397948,-6.112178227,0.859714795,4
1.61691E+18,-444.0012043,6.927330243,-3.387769046,-0.579521889,4
1.61691E+18,-443.9911863,22.33207264,2.795575306,-0.134758599,4
1.61691E+18,-443.9811709,10.93118361,3.320802126,0.629347704,4
1.61691E+18,-443.9711531,2.754014631,3.503057221,1.249443596,4
1.61691E+18,-443.961134,-1.352204883,5.648068431,1.475206408,4
1.61691E+18,-443.9511157,-4.447850346,7.936307379,2.183040205,4
1.61691E+18,-443.9410981,-4.833208092,8.851939292,2.826494761,4
1.61691E+18,-443.9310789,-2.867851438,8.176400914,3.135180186,4
1.61691E+18,-443.921061,-0.514849219,7.379618668,2.588969614,4
1.61691E+18,-443.911043,0.83069796,5.907025657,1.293473877,4
1.61691E+18,-443.9010249,0.454786087,3.819107037,0.129110364,4
1.61691E+18,-443.8910061,0.538362196,1.191752455,-0.571813799,4
1.61691E+18,-443.880988,0.219941559,-0.600603256,-0.584907674,4
1.61691E+18,-443.87097,0.054471595,-0.963909914,0.027381343,4
1.61691E+18,-443.8609519,-0.039712417,-0.841716197,0.675173636,4
1.61691E+18,-443.8509329,0.37485155,-0.596361965,0.465713724,4
1.61691E+18,-443.840915,0.554442393,-0.913627003,-0.306803265,4
1.61691E+18,-443.830897,0.584444733,-1.298385614,-0.987002036,4
1.61691E+18,-443.8208792,0.467701683,-2.08127319,-0.984672716,4
1.61691E+18,-443.8108601,0.120303957,-2.691338687,-0.768583741,4
1.61691E+18,-443.8008418,-0.172950675,-2.60033272,0.155668116,4
1.61691E+18,-443.790824,0.722135878,-1.742859566,0.470592144,4
1.61691E+18,-443.7808059,1.627344012,-0.86066932,0.546252657,4
1.61691E+18,-443.7707871,2.915376575,-0.889277574,0.543355182,4
1.61691E+18,-443.7607688,3.845859435,-2.182103216,1.083383265,4
1.61691E+18,-443.7507507,-1.351817929,-1.869669252,1.471537364,4
1.61691E+18,-443.7407319,-6.745325324,-0.607653174,1.964400377,4
1.61691E+18,-443.7307139,-7.525088046,-1.154101062,2.85814779,4
1.61691E+18,-443.720696,-4.980810391,-1.69523623,1.757363892,4
1.61691E+18,-443.7106777,-2.050119343,-2.277222463,0.801335087,4
1.61691E+18,-443.7006587,-0.289948576,-3.270063288,-0.282686476,4
1.61691E+18,-443.6906409,1.285005908,-4.64705073,-2.363299157,4
1.61691E+18,-443.6806228,-0.474347697,-4.330803929,-1.771105125,4
1.61691E+18,-443.6706052,0.90731592,-2.236366137,-0.137265613,4
1.61691E+18,-443.6605859,0.74031334,-2.416647885,-0.088545714,4
1.61691E+18,-443.6505676,-1.080666408,-4.309505705,-0.384627678,4
1.61691E+18,-443.64055,-1.451923148,-4.465968186,-0.067303312,4
1.61691E+18,-443.630532,-1.078480296,-4.444295284,0.686847707,4
1.61691E+18,-443.6205132,-0.920491043,-4.42581504,1.160104102,4
1.61691E+18,-443.6104949,-1.813247692,-4.177454611,1.298353319,4
1.61691E+18,-443.6004771,-2.864522001,-2.5235622,0.898656228,4
1.61691E+18,-443.590459,-3.989270712,3.566749064,-0.275603532,4
1.61691E+18,-443.5804399,-2.951303628,8.132054407,-0.27765988,4
1.61691E+18,-443.5704221,1.167266833,10.95496196,-1.165073122,4
1.61691E+18,-443.5604038,4.495041136,11.14096384,-1.667139724,4
1.61691E+18,-443.550385,5.274221675,9.263507584,-0.974341876,4
1.61691E+18,-443.5403669,2.472845573,6.412720678,-1.104601702,4
1.61691E+18,-443.5303489,1.088258178,3.668337215,-1.231540275,4
1.61691E+18,-443.5203311,1.499186419,0.724458184,-1.540958107,4
1.61691E+18,-443.510312,1.775987929,-1.686114181,-1.718650131,4
1.61691E+18,-443.5002939,0.421130486,-2.268093985,-1.131353223,4
1.61691E+18,-443.4902759,-1.823985359,-1.00878892,0.610902532,4
1.61691E+18,-443.4802581,-3.486351585,0.361450216,2.457569094,4
1.61691E+18,-443.470239,-3.446072182,0.167819157,3.318852454,4
1.61691E+18,-443.4602209,-2.201766533,-1.321568337,2.575594877,4
1.61691E+18,-443.4502029,-1.474249546,-2.083894771,1.919490975,4
1.61691E+18,-443.4401848,-2.383273439,-1.802495996,1.672130664,4
1.61691E+18,-443.430166,-2.732081031,-0.307869433,1.932296681,4
1.61691E+18,-443.4201479,-2.202159331,1.58220957,2.201450891,4
1.61691E+18,-443.4101296,-1.58915369,2.546185535,1.975600401,4
1.61691E+18,-443.4001108,-0.64572367,3.153146051,1.746580632,4
1.61691E+18,-443.3900928,1.005183589,3.579139759,1.530517377,4
1.61691E+18,-443.380075,3.701180915,3.502753269,0.971272844,4
1.61691E+18,-443.3700571,6.845088013,2.845003646,0.036097442,4
1.61691E+18,-443.3600378,8.972699761,1.807740327,-1.062536585,4
1.61691E+18,-443.35002,9.782361946,1.27915952,-1.600264574,4
1.61691E+18,-443.340002,8.434364452,1.209300971,-1.801723259,4
1.61691E+18,-443.3299841,5.780176808,1.000094157,-1.711234302,4
1.61691E+18,-443.3199651,3.463260632,0.875852276,-1.440302268,4
1.61691E+18,-443.309947,1.774391015,0.879993029,-0.792849875,4
1.61691E+18,-443.299929,-0.084151278,1.470265445,-0.214383048,4
1.61691E+18,-443.2899109,-2.809527844,2.146895125,-0.224067991,4
1.61691E+18,-443.2798921,-3.97344069,2.626568985,-0.628865766,4
1.61691E+18,-443.269874,-3.794374747,3.050375412,-1.53916947,4
1.61691E+18,-443.259856,-2.872973019,2.399540683,-2.491852764,4
1.61691E+18,-443.2498379,-2.106733795,1.185812543,-2.637766379,4
1.61691E+18,-443.2398188,-2.026806272,0.231323369,-2.111266178,4
1.61691E+18,-443.229801,-1.317148767,-0.47571957,-1.530669645,4
1.61691E+18,-443.219783,-1.02938864,-0.781161483,-1.346890117,4
1.61691E+18,-443.2097642,-0.531346764,-1.000339072,-1.206629121,4
1.61691E+18,-443.1997458,0.018259295,-1.124653434,-1.035602693,4
1.61691E+18,-443.1897278,-0.186399354,-0.906976897,-0.881079655,4
1.61691E+18,-443.17971,-0.458081622,-0.641781654,-0.748102094,4
1.61691E+18,-443.1696909,-0.710057318,-0.379016853,-0.760218064,4
1.61691E+18,-443.1596731,-0.472459691,-0.176710904,-0.837446849,4
1.61691E+18,-443.1496548,-0.293162278,0.047994508,-0.907330241,4
1.61691E+18,-443.139637,-0.28242461,0.215851074,-0.905076324,4
1.61691E+18,-443.1296179,-0.465191746,0.273076936,-0.817609053,4
1.61691E+18,-443.1195999,-0.756852971,0.212670106,-0.682078593,4
1.61691E+18,-443.1095818,-1.088000988,0.101270755,-0.517022763,4
1.61691E+18,-443.0995627,-1.282548578,-0.084102179,-0.335264805,4
1.61691E+18,-443.0895447,-1.265348437,-0.32881519,-0.139046944,4
1.61691E+18,-443.0795269,-1.122508823,-0.542006106,0.105231476,4
1.61691E+18,-443.069509,-0.853862562,-0.763286219,0.30592239,4
1.61691E+18,-443.05949,-0.640090048,-0.809242499,0.562389845,4
1.61691E+18,-443.0494719,-0.444426021,-0.899722981,0.767775347,4
1.61691E+18,-443.0394541,-0.141397014,-1.029044357,0.841537626,4
1.61691E+18,-443.029436,0.081840079,-1.170673426,0.761515702,4
1.61691E+18,-443.019417,0.184466925,-1.250447805,0.60142977,4
1.61691E+18,-443.0093992,0.224383925,-1.151588202,0.486209107,4
1.61691E+18,-442.9993809,0.199299753,-0.977909213,0.418207292,4
1.61691E+18,-442.9893621,0.258336463,-0.773159963,0.375335242,4
1.61691E+18,-442.9793452,0.32490883,-0.571016511,0.299502587,4
1.61691E+18,-442.9693271,0.348777197,-0.34266076,0.259859435,4
1.61691E+18,-442.9593091,0.163761991,-0.11508067,0.152137312,4
1.61691E+18,-442.94929,-0.062982234,-0.056073185,-0.087317049,4
1.61691E+18,-442.9392722,-0.096686935,-0.203258719,-0.396980087,4
1.61691E+18,-442.9292542,-0.033973581,-0.412875868,-0.672169193,4
1.61691E+18,-442.9192361,-0.02939093,-0.628382074,-0.893330941,4
1.61691E+18,-442.909217,0.224311444,-0.917039442,-0.92383597,4
1.61691E+18,-442.8991992,0.25949031,-1.162128885,-0.835467366,4
1.61691E+18,-442.8891812,0.453002126,-1.392375565,-0.420206649,4
1.61691E+18,-442.8791631,0.566579406,-1.545399888,0.202096398,4
1.61691E+18,-442.8691443,0.431302336,-1.552653805,0.546840102,4
1.61691E+18,-442.859126,0.465085363,-1.433230138,0.670375296,4
1.61691E+18,-442.8491084,0.627125352,-1.109558156,0.770169257,4
1.61691E+18,-442.8390891,0.745959821,-0.579229044,0.839318489,4
1.61691E+18,-442.8290713,0.909894831,-0.024692543,0.610162235,4
1.61691E+18,-442.8190532,1.197147592,0.533683683,0.265438989,4
1.61691E+18,-442.8090352,1.533065308,0.932487186,0.118411568,4
1.61691E+18,-442.7990164,1.42559862,1.070537812,0.269359377,4
1.61691E+18,-442.7889983,0.841760621,0.841544348,0.582929068,4
1.61691E+18,-442.7789805,-0.05787585,0.412172103,1.040498648,4
1.61691E+18,-442.7689622,-0.858636937,-0.195530171,1.53617058,4
1.61691E+18,-442.7589431,-1.035834748,-0.784208596,1.759218288,4
1.61691E+18,-442.7489253,-0.751398213,-1.172538051,1.795918079,4
1.61691E+18,-442.7389072,-0.514101031,-1.205700901,1.851981912,4
1.61691E+18,-442.7288882,-0.425682742,-0.862086201,1.987334385,4
1.61691E+18,-442.7188704,-0.298120192,-0.234206231,2.082799669,4
1.61691E+18,-442.7088521,-0.098951373,0.386497564,2.012448953,4
1.61691E+18,-442.6988342,0.191837746,0.633471506,1.814654929,4
1.61691E+18,-442.6888152,0.568057077,0.253967747,1.567521119,4
1.61691E+18,-442.6787974,0.963640449,-0.698328302,1.285790629,4
1.61691E+18,-442.6687791,1.117308916,-1.733324845,0.763990276,4
1.61691E+18,-442.658761,0.824517225,-2.415605683,0.139333944,4
1.61691E+18,-442.6487422,0.181261407,-2.697788301,-0.450217464,4
1.61691E+18,-442.6387241,-0.691323391,-2.66020179,-0.978010628,4
1.61691E+18,-442.6287063,-1.694351264,-2.238030271,-1.373746852,4
1.61691E+18,-442.6186873,-2.680844181,-1.374243696,-1.642501249,4
1.61691E+18,-442.6086689,-3.348006944,-0.066844754,-1.820945553,4
1.61691E+18,-442.5986511,-3.346310662,1.566528601,-1.901868809,4
1.61691E+18,-442.5886331,-2.910563621,3.393604912,-1.990940301,4
1.61691E+18,-442.5786143,-1.680098282,5.047133751,-2.114707842,4
1.61691E+18,-442.5685962,-0.140996032,5.787130281,-2.38374018,4
1.61691E+18,-442.5585781,1.371920806,5.160963544,-2.6795179,4
1.61691E+18,-442.5485591,2.176980466,3.381614615,-2.888496751,4
1.61691E+18,-442.538541,2.072376767,1.403220784,-2.885208523,4
1.61691E+18,-442.5285234,1.552760773,0.05396423,-2.53677444,4
1.61691E+18,-442.5185054,0.959314987,-0.608162293,-1.858869626,4
1.61691E+18,-442.5084863,0.404194549,-0.885220408,-1.181603986,4
1.61691E+18,-442.4984683,-0.013565584,-1.12707277,-0.809851571,4
1.61691E+18,-442.4884502,-0.335551221,-1.038908164,-0.42493397,4
1.61691E+18,-442.4784324,-0.612417612,-0.666903236,0.010463819,4
1.61691E+18,-442.4684133,-0.811817903,-0.250226807,0.344427478,4
1.61691E+18,-442.4583953,-0.978102105,0.157460845,0.656538201,4
1.61691E+18,-442.4483772,-0.964921721,0.515576948,1.062103746,4
1.61691E+18,-442.4383582,-0.816367821,0.682990447,1.488004515,4
1.61691E+18,-442.4283403,-0.612017799,0.623293811,1.787141483,4
1.61691E+18,-442.4183223,-0.481372481,0.460079517,1.887199063,4
1.61691E+18,-442.4083042,-0.506061516,0.185828861,1.671720914,4
1.61691E+18,-442.3982852,-0.415419122,-0.257013106,1.098655069,4
1.61691E+18,-442.3882671,-0.137161569,-0.506670588,0.399048418,4
1.61691E+18,-442.3782493,0.265697932,-0.341727863,-0.125921213,4
1.61691E+18,-442.3682312,0.88631171,-0.054335401,-0.4649971,4
1.61691E+18,-442.3582124,1.629331387,0.201361361,-0.681484134,4
1.61691E+18,-442.3481941,2.275026999,0.326968686,-0.827066033,4
1.61691E+18,-442.3381763,2.724921807,0.312021876,-0.948575859,4
1.61691E+18,-442.3281572,2.840395276,0.212303027,-1.094225854,4
1.61691E+18,-442.3181392,2.555167298,0.160482238,-1.234855683,4
1.61691E+18,-442.3081211,2.071204216,0.257043501,-1.273879534,4
1.61691E+18,-442.298103,1.571044033,0.434745754,-1.099141391,4
1.61691E+18,-442.288084,1.16969669,0.499532407,-0.785299314,4
1.61691E+18,-442.2780662,0.891376008,0.375244348,-0.500889082,4
1.61691E+18,-442.2680481,0.608504238,0.332044089,-0.235703191,4
1.61691E+18,-442.2580293,0.332113063,0.325879137,-0.008280337,4
1.61691E+18,-442.248011,0.091620299,0.255457693,0.124724112,4
1.61691E+18,-442.2379932,-0.117896896,0.095665191,0.142318805,4
1.61691E+18,-442.2279753,-0.213391991,-0.136312843,0.054299161,4
1.61691E+18,-442.2179561,-0.215541278,-0.420849915,-0.129391519,4
1.61691E+18,-442.2079385,-0.150366503,-0.628680765,-0.307811565,4
1.61691E+18,-442.1979202,-0.055081836,-0.694151308,-0.473021417,4
1.61691E+18,-442.1879023,0.017229367,-0.622920302,-0.668545742,4
1.61691E+18,-442.1778833,0.089353523,-0.521421583,-0.867626591,4
1.61691E+18,-442.1678652,0.202181445,-0.394516035,-1.072116314,4
1.61691E+18,-442.1578472,0.353611778,-0.276460734,-1.198396715,4
1.61691E+18,-442.1478284,0.589517214,-0.237255681,-1.230892625,4
1.61691E+18,-442.1378103,0.843359288,-0.242725637,-1.207437515,4
1.61691E+18,-442.1277922,1.032553242,-0.218246445,-1.179946574,4
1.61691E+18,-442.1177744,1.112917988,-0.14256372,-1.149765663,4
1.61691E+18,-442.1077554,1.112998652,-0.05825579,-1.114536529,4
1.61691E+18,-442.0977371,1.093505431,0.004298574,-1.054218546,4
1.61691E+18,-442.0877192,1.033334163,0.122826754,-0.95059509,4
1.61691E+18,-442.0777002,0.974562241,0.25245442,-0.848035756,4
1.61691E+18,-442.0676821,0.912940774,0.381021178,-0.779167094,4
1.61691E+18,-442.0576643,0.820561766,0.514552281,-0.738986183,4
1.61691E+18,-442.047646,0.742651427,0.654303282,-0.670813687,4
1.61691E+18,-442.0376272,0.738501322,0.705794984,-0.540399255,4
1.61691E+18,-442.0276091,0.809897164,0.648991147,-0.411903516,4
1.61691E+18,-442.0175913,0.930175402,0.571915506,-0.329904447,4
1.61691E+18,-442.0075723,1.063420089,0.577248099,-0.224184603,4
1.61691E+18,-441.9975542,1.190847615,0.640604427,-0.10456366,4
1.61691E+18,-441.9875361,1.308516547,0.713598351,0.008219547,4
1.61691E+18,-441.9775171,1.377901634,0.807908036,0.097770638,4
1.61691E+18,-441.967498,1.404891932,0.839090525,0.067084408,4
1.61691E+18,-441.9574802,1.415307528,0.759040252,-0.179752464,4
1.61691E+18,-441.9474622,1.429084124,0.71831369,-0.583795621,4
1.61691E+18,-441.9374441,1.513908772,0.74665774,-1.048572649,4
1.61691E+18,-441.927425,1.590320396,0.781899734,-1.55236096,4
1.61691E+18,-441.917407,1.631934847,0.823392605,-2.007294931,4
1.61691E+18,-441.9073892,1.571633231,0.919386882,-2.364577506,4
1.61691E+18,-441.8973701,1.456782863,1.142070432,-2.646205413,4
1.61691E+18,-441.8873521,1.285776308,1.497000307,-2.835778137,4
1.61691E+18,-441.877334,1.134845742,2.022075736,-2.959342558,4
1.61691E+18,-441.8673159,1.070713169,2.607304313,-3.024168373,4
1.61691E+18,-441.8572971,1.094255373,3.068146047,-3.116144646,4
1.61691E+18,-441.8472791,1.259498542,3.251758985,-3.174202867,4
1.61691E+18,-441.8372615,1.412659644,3.219912479,-3.137040135,4
1.61691E+18,-441.8272422,1.462832664,2.956300121,-3.044754065,4
1.61691E+18,-441.8172241,1.391495859,2.584697344,-2.924495116,4
1.61691E+18,-441.8072063,1.25375503,2.31136731,-2.725444662,4
1.61691E+18,-441.7971882,1.167589489,2.171754256,-2.429945174,4
1.61691E+18,-441.7871692,1.164918224,2.046329303,-2.082104965,4
1.61691E+18,-441.7771511,1.340835347,1.769028027,-1.632967113,4
1.61691E+18,-441.7671331,1.82826289,1.002879404,-1.129278171,4
1.61691E+18,-441.7571143,2.575209969,-0.041527358,-0.558707649,4
1.61691E+18,-441.7470962,3.370739,-0.830031605,0.083545714,4
1.61691E+18,-441.7370784,4.070656032,-1.275936466,0.687249858,4
1.61691E+18,-441.7270601,4.715105444,-1.483778422,1.257929685,4
1.61691E+18,-441.717041,5.374460749,-1.569830565,1.831859746,4
1.61691E+18,-441.7070232,5.718028687,-1.393427704,2.264056108,4
1.61691E+18,-441.6970051,5.453489862,-0.822759568,2.432967152,4
1.61691E+18,-441.6869863,4.537169967,-0.034461657,2.121525706,4
1.61691E+18,-441.6769683,3.515481233,0.816164992,1.716866754,4
1.61691E+18,-441.66695,2.634431974,1.910000678,1.417346632,4
1.61691E+18,-441.6569321,1.647891126,3.104781541,1.132791732,4
1.61691E+18,-441.6469131,0.667449179,4.180556085,1.010374143,4
1.61691E+18,-441.6368953,-0.48400166,4.50800817,0.847151082,4
1.61691E+18,-441.6268772,-2.076111862,4.320481857,0.449210625,4
1.61691E+18,-441.6168591,-4.280470165,3.951937299,0.085250472,4
1.61691E+18,-441.6068401,-5.961304944,3.375375428,-0.465723953,4
1.61691E+18,-441.596822,-7.035089191,3.139713153,-0.909021847,4
1.61691E+18,-441.5868042,-6.901689606,3.050862903,-1.22457862,4
1.61691E+18,-441.5767852,-4.760657235,3.127347593,-1.734492866,4
1.61691E+18,-441.5667671,-2.116051074,2.771301281,-2.250516681,4
1.61691E+18,-441.556749,-2.029374661,1.942996939,-2.204932595,4
1.61691E+18,-441.546731,-2.960036385,1.396864693,-1.594054614,4
1.61691E+18,-441.5367122,-2.671213598,0.823999339,-0.714070937,4
1.61691E+18,-441.5266941,-1.638210274,0.344176426,0.148746208,4
1.61691E+18,-441.5166763,-1.39296827,0.172079153,0.892467895,4
1.61691E+18,-441.506657,-1.556667132,0.086777535,1.554924965,4
1.61691E+18,-441.4966392,-1.512734467,-0.29209611,1.947271547,4
1.61691E+18,-441.4866213,-1.496535028,-0.905165464,2.305091736,4
1.61691E+18,-441.4766023,-1.546157429,-1.879802523,2.33685641,4
1.61691E+18,-441.4665845,-1.178819323,-2.836307714,2.258669446,4
1.61691E+18,-441.4565662,-0.582224719,-3.391158104,2.206381479,4
1.61691E+18,-441.4465481,-0.457713373,-3.662062372,2.392975772,4
1.61691E+18,-441.4365293,-0.84932901,-3.774453072,2.581364985,4
1.61691E+18,-441.4265112,-0.991409915,-3.969264281,2.717384982,4
1.61691E+18,-441.4164932,-1.713755052,-4.125578294,2.573354989,4
1.61691E+18,-441.4064741,-2.098662717,-4.260179072,2.156954454,4
1.61691E+18,-441.3964561,-2.261466091,-4.303510849,1.645293657,4
1.61691E+18,-441.3864382,-2.385347323,-4.334865187,1.123708554,4
1.61691E+18,-441.3764202,-2.437068157,-4.218172991,0.652791416,4
1.61691E+18,-441.3664014,-2.079748757,-3.910221725,0.310308497,4
1.61691E+18,-441.3563831,-1.560871014,-3.738355923,0.069572572,4
1.61691E+18,-441.3463652,-1.357560272,-3.642727557,-0.056095251,4
1.61691E+18,-441.3363462,-1.166226384,-3.512857315,-0.14035072,4
1.61691E+18,-441.3263281,-1.19986445,-3.474394021,-0.203403096,4
1.61691E+18,-441.3163103,-1.09941787,-3.540854744,-0.168849377,4
1.61691E+18,-441.306292,-0.816163238,-3.545096619,-0.100145551,4
1.61691E+18,-441.2962729,-0.249848037,-3.530772326,0.086140552,4
1.61691E+18,-441.2862551,0.328929172,-3.449660561,0.36619858,4
1.61691E+18,-441.2762371,0.878605374,-3.220501093,0.64183806,4
1.61691E+18,-441.2662183,1.203445231,-2.635298819,0.804100168,4
1.61691E+18,-441.2562002,1.580384693,-1.645512706,0.689966278,4
1.61691E+18,-441.2461821,2.338033783,-0.21836218,0.29971433,4
1.61691E+18,-441.2361641,3.697694827,1.582945483,-0.417180141,4
1.61691E+18,-441.226145,4.969449623,3.429101757,-1.333445237,4
1.61691E+18,-441.2161272,6.19819413,5.108378202,-2.083287745,4
1.61691E+18,-441.2061089,7.701195139,6.178227447,-2.417204058,4
1.61691E+18,-441.1960898,7.827019321,6.071128424,-2.12037449,4
1.61691E+18,-441.186072,5.32496402,5.400765403,-1.854153995,4
1.61691E+18,-441.1760542,2.709394568,3.914137437,-1.692848458,4
1.61691E+18,-441.1660364,1.489735869,1.785145049,-1.290345515,4
1.61691E+18,-441.1560173,1.047112513,-0.286859963,-0.282408682,4
1.61691E+18,-441.1459993,0.753902305,-1.819939883,1.153282585,4
1.61691E+18,-441.1359812,0.63558806,-2.039609055,2.80978328,4
1.61691E+18,-441.1259622,0.005340192,-0.932775355,4.760817979,4
1.61691E+18,-441.1159443,-0.55741761,0.575962736,6.194321673,4
1.61691E+18,-441.1059263,-0.762526341,2.022909264,6.886691358,4
1.61691E+18,-441.0959082,-0.816400554,3.142769034,7.4730013,4
1.61691E+18,-441.0858892,-0.949098714,3.813244283,7.786134353,4
1.61691E+18,-441.0758711,-1.734230854,3.562178103,7.38349814,4
1.61691E+18,-441.0658533,-2.407065818,2.099408566,5.760694694,4
1.61691E+18,-441.0558342,-1.615826593,0.044134325,3.416765423,4
1.61691E+18,-441.0458162,-0.269915842,-1.646588226,1.602386243,4
1.61691E+18,-441.0357981,0.529547606,-3.034657034,0.518109243,4
1.61691E+18,-441.0257803,0.527916205,-4.152262303,-0.081847093,4
1.61691E+18,-441.0157612,-0.135837626,-4.812479777,-0.572077711,4
1.61691E+18,-441.0057432,-1.132224746,-4.95807132,-1.060893494,4
1.61691E+18,-440.9957251,-2.194715445,-4.494781609,-1.50549341,4
1.61691E+18,-440.9857058,-2.911527498,-3.719659406,-1.865670538,4
1.61691E+18,-440.975688,-3.445268464,-2.837946713,-2.159913596,4
1.61691E+18,-440.9656699,-4.184626111,-1.821782296,-2.357715804,4
1.61691E+18,-440.9556509,-4.94144518,-0.481278373,-2.463332772,4
1.61691E+18,-440.9456331,-5.66571807,1.431664788,-2.593911455,4
1.61691E+18,-440.9356147,-7.322710201,4.079874527,-2.786643227,4
1.61691E+18,-440.9255969,-8.457453067,6.846545226,-2.904301346,4
1.61691E+18,-440.9155779,-5.596271024,8.38215788,-2.980430354,4
1.61691E+18,-440.9055598,1.325619073,7.288827221,-2.626269125,4
1.61691E+18,-440.895542,6.668678137,5.268277672,-2.061548207,4
1.61691E+18,-440.8855229,7.885139502,3.111724492,-1.531370486,4
1.61691E+18,-440.8755049,6.837841695,0.858452813,-1.26497142,4
1.61691E+18,-440.8654868,4.979781048,-0.6838117,-1.064289273,4
1.61691E+18,-440.8554692,3.11517434,-1.525885625,-0.815142663,4
1.61691E+18,-440.84545,1.930920132,-2.04941324,-0.460458288,4
1.61691E+18,-440.8354319,1.148019696,-2.103069427,0.013497195,4
1.61691E+18,-440.8254141,0.354464595,-1.806456717,0.483672574,4
1.61691E+18,-440.8153948,-0.5693062,-1.181802139,0.878539323,4
1.61691E+18,-440.8053772,-1.439243115,-0.477647907,1.07397334,4
1.61691E+18,-440.7953591,-1.990990862,-0.060965633,1.09788613,4
1.61691E+18,-440.7853408,-2.043787802,-0.055783847,1.031929265,4
1.61691E+18,-440.775322,-1.481091959,-0.449914097,0.77904376,4
1.61691E+18,-440.765304,-0.627819764,-0.833313111,0.509336008,4
1.61691E+18,-440.7552861,0.25752164,-1.009686161,0.348918652,4
1.61691E+18,-440.7452671,1.021468369,-1.141407,0.146425948,4
1.61691E+18,-440.735249,1.693019138,-1.209870295,-0.049099546,4
1.61691E+18,-440.725231,2.240582878,-1.28199036,-0.238642752,4
1.61691E+18,-440.7152119,2.568568047,-1.468618847,-0.432478102,4
1.61691E+18,-440.7051941,2.608492061,-1.668653928,-0.595883534,4
1.61691E+18,-440.695176,2.440053895,-1.810209347,-0.656200055,4
1.61691E+18,-440.685158,2.119250747,-1.765944674,-0.52681029,4
1.61691E+18,-440.6751392,1.703907612,-1.464085879,-0.187399471,4
1.61691E+18,-440.6651208,1.365783326,-1.117189673,0.128739193,4
1.61691E+18,-440.655103,1.085548335,-0.731521546,0.290918883,4
1.61691E+18,-440.645084,0.836698661,-0.307772987,0.268875393,4
1.61691E+18,-440.6350659,0.730343735,-0.024880759,0.101836573,4
1.61691E+18,-440.6250479,0.853925106,-0.026190672,-0.262488322,4
1.61691E+18,-440.6150298,1.001532665,0.166960494,-0.72108783,4
1.61691E+18,-440.605011,0.943554524,1.023286232,-1.140841183,4
1.61691E+18,-440.5949929,0.796475372,1.890401074,-1.604956824,4
1.61691E+18,-440.5849751,0.690288788,2.432538697,-2.233883672,4
1.61691E+18,-440.5749561,0.754437727,2.777100323,-2.893868507,4
1.61691E+18,-440.5649377,1.022260396,3.222474439,-3.377287984,4
1.61691E+18,-440.5549199,1.42222476,3.824669932,-3.57072995,4
1.61691E+18,-440.5449009,2.160603332,4.269803809,-3.343308557,4
1.61691E+18,-440.5348828,3.13368381,4.268695556,-2.652825416,4
1.61691E+18,-440.524865,3.914863998,3.556601764,-1.608137792,4
1.61691E+18,-440.5148467,4.159373011,2.138183995,-0.660512658,4
1.61691E+18,-440.5048279,3.816149356,0.945984381,0.062902446,4
1.61691E+18,-440.4948098,3.031877632,0.504863247,0.756323102,4
1.61691E+18,-440.4847922,1.949018099,0.747908033,1.379806591,4
1.61691E+18,-440.4747729,0.94780692,1.606956473,1.962275932,4
1.61691E+18,-440.4647546,0.215792622,2.347089196,2.21528214,4
1.61691E+18,-440.4547371,0.054524202,2.275744208,1.540157312,4
1.61691E+18,-440.444719,1.288265787,2.140265478,0.088273619,4
1.61691E+18,-440.4347,3.770742527,2.476772391,-1.21935767,4
1.61691E+18,-440.4246821,6.486526504,2.995060937,-2.307885313,4
1.61691E+18,-440.4146638,7.815893531,3.078306206,-3.144737119,4
1.61691E+18,-440.404645,6.81414167,2.351269112,-3.601215981,4
1.61691E+18,-440.394627,4.734914891,1.25802087,-3.448126776,4
1.61691E+18,-440.3846091,3.23907486,0.671282474,-2.488543493,4
1.61691E+18,-440.3745901,2.849135631,0.45250236,-0.925582229,4
1.61691E+18,-440.364572,2.400759411,-0.266969852,0.595114303,4
1.61691E+18,-440.354554,1.869299834,-0.330218043,1.627627798,4
1.61691E+18,-440.3445359,1.891386578,0.66375617,2.681782923,4
1.61691E+18,-440.3345171,1.922113725,2.065309313,3.729659114,4
1.61691E+18,-440.324499,1.510910759,4.079078993,4.943776253,4
1.61691E+18,-440.314481,0.090419691,6.417158368,6.600594197,4
1.61691E+18,-440.3044619,-3.225754191,7.818133419,7.03076256,4
1.61691E+18,-440.2944438,-7.730325372,6.52779901,4.884837742,4
1.61691E+18,-440.284426,-10.44844802,3.763425482,1.89377172,4
1.61691E+18,-440.274408,-11.08067391,2.610955236,-0.534400891,4
1.61691E+18,-440.2643889,-9.473403549,1.958213797,-2.176098423,4
1.61691E+18,-440.2543708,-4.752926349,1.445799112,-3.451306283,4
1.61691E+18,-440.2443528,3.578335457,1.836473669,-4.87357985,4
1.61691E+18,-440.234334,5.47964254,2.109684461,-4.858505031,4
1.61691E+18,-440.2243159,1.181675297,1.760330341,-3.230279852,4
1.61691E+18,-440.2142979,-2.333715335,1.302719259,-1.594089685,4
1.61691E+18,-440.2042791,-5.053047944,0.613205548,-0.498074902,4
1.61691E+18,-440.1942607,-6.067830551,-0.433755574,-0.019029695,4
1.61691E+18,-440.1842429,-6.511211448,-1.256947688,0.180666071,4
1.61691E+18,-440.1742249,-6.8171806,-2.19970317,0.240794669,4
1.61691E+18,-440.1642058,-6.281681392,-3.172044813,0.538784221,4
1.61691E+18,-440.154188,-5.961217266,-4.054770481,0.93123251,4
1.61691E+18,-440.1441697,-5.830443353,-4.564914883,1.326817928,4
1.61691E+18,-440.1341509,-5.150093775,-4.665470184,1.796155834,4
1.61691E+18,-440.1241328,-4.291034813,-4.647484445,2.164407254,4
1.61691E+18,-440.1141152,-3.623033846,-4.70121019,2.414988281,4
1.61691E+18,-440.1040959,-3.181720988,-4.635440956,2.449497577,4
1.61691E+18,-440.0940779,-2.820525038,-4.789955226,2.313532671,4
1.61691E+18,-440.0840601,-2.512238842,-5.209175494,1.975752522,4
1.61691E+18,-440.074042,-2.507262222,-5.695650851,1.650114355,4
1.61691E+18,-440.0640229,-2.358991231,-6.097405605,1.546772054,4
1.61691E+18,-440.0540051,-2.192553299,-6.044827277,1.563881155,4
1.61691E+18,-440.0439868,-1.701235762,-5.718817792,1.733649985,4
1.61691E+18,-440.033968,-1.083662667,-5.623045049,2.039939309,4
1.61691E+18,-440.02395,-0.604470453,-5.72496287,2.300975679,4
1.61691E+18,-440.0139321,0.015192893,-5.93493307,2.541962949,4
1.61691E+18,-440.0039131,0.779382783,-6.201567991,2.845883936,4
1.61691E+18,-439.993895,1.21971832,-6.173680451,3.070918434,4
1.61691E+18,-439.9838777,1.183697743,-5.499233961,2.90207724,4
1.61691E+18,-439.9738599,1.212819793,-3.897460443,2.368413139,4
1.61691E+18,-439.9638408,2.260038689,-1.020007649,1.438303788,4
1.61691E+18,-439.9538228,3.425698087,3.697179863,0.062030632,4
1.61691E+18,-439.9438047,4.503842867,10.7784457,-1.278561846,4
1.61691E+18,-439.9337856,4.019925378,18.95718353,-2.209040615,4
1.61691E+18,-439.9237678,6.617067193,22.5056242,-3.577181026,4
1.61691E+18,-439.9137498,11.67910391,16.38114997,-5.015583013,4
1.61691E+18,-439.9037307,9.902481195,7.047779161,-4.64568441,4
1.61691E+18,-439.8937126,6.856850931,1.309478671,-2.913816778,4
1.61691E+18,-439.8836946,4.601608829,-2.238726436,-0.825058785,4
1.61691E+18,-439.8736768,1.690666438,-4.656885311,1.199387041,4
1.61691E+18,-439.8636577,-0.515393993,-5.990893442,2.624928817,4
1.61691E+18,-439.8536399,-1.028414827,-5.87844429,3.674889705,4
1.61691E+18,-439.8436216,-1.35825936,-4.670855384,4.670464046,4
1.61691E+18,-439.8336025,-1.760286502,-3.056217124,5.21359974,4
1.61691E+18,-439.8235847,-2.193043128,-1.086649574,5.668047974,4
1.61691E+18,-439.8135669,-2.331715101,1.308293845,6.835268045,4
1.61691E+18,-439.8035476,-2.794047366,3.971512352,8.642758781,4
1.61691E+18,-439.79353,-4.682102169,6.388609735,9.923564899,4
1.61691E+18,-439.7835117,-6.948796225,6.471221382,8.546832894,4
1.61691E+18,-439.7734939,-5.79079874,1.724600856,4.117949114,4
1.61691E+18,-439.7634749,-3.742655081,-1.577308938,1.602397787,4
1.61691E+18,-439.753457,-2.435563598,-3.304367709,0.457549122,4
1.61691E+18,-439.7434387,-1.765212852,-4.66599976,-0.645612903,4
1.61691E+18,-439.7334199,-1.820478228,-5.649774651,-1.729274108,4
1.61691E+18,-439.7234019,-2.074041486,-6.293594533,-2.689339622,4
1.61691E+18,-439.7133838,-2.543732881,-6.239623873,-3.448624204,4
1.61691E+18,-439.7033647,-3.2047757,-5.085398308,-4.1783463,4
1.61691E+18,-439.6933469,-3.450269049,-2.623596691,-4.460332811,4
1.61691E+18,-439.6833286,-3.396414709,0.854262375,-4.738214517,4
1.61691E+18,-439.6733098,-2.802739206,5.110284327,-4.960142281,4
1.61691E+18,-439.6632917,1.425654734,9.712877491,-5.579726132,4
1.61691E+18,-439.6532739,4.546631038,11.91508125,-6.256737505,4
1.61691E+18,-439.6432559,3.76892291,9.492546641,-5.759496424,4
1.61691E+18,-439.6332368,2.985358458,4.861991119,-4.530224678,4
1.61691E+18,-439.6232188,2.472439915,1.900627869,-3.160309074,4
1.61691E+18,-439.6132007,2.28099789,0.424747507,-1.872641546,4
1.61691E+18,-439.6031819,2.332784192,-0.837716314,-1.003766708,4
1.61691E+18,-439.5931638,2.171882851,-1.934313281,-0.323208456,4
1.61691E+18,-439.5831458,1.874732965,-2.58780174,0.348731605,4
1.61691E+18,-439.573127,1.308433545,-2.393942132,1.113007419,4
1.61691E+18,-439.5631086,0.547578353,-1.552042395,1.92019474,4
1.61691E+18,-439.5530908,-0.407679468,-0.490371195,2.634921803,4
1.61691E+18,-439.5430728,-1.20145961,-0.094618312,2.858267909,4
1.61691E+18,-439.5330537,-1.392300162,-0.766075558,2.165862276,4
1.61691E+18,-439.5230356,-1.246501113,-1.46841894,1.15318044,4
1.61691E+18,-439.5130176,-0.844152485,-1.386679399,0.676606884,4
1.61691E+18,-439.5029988,0.08051263,-1.407493055,0.463280067,4
1.61691E+18,-439.4929807,1.146760051,-1.618118503,0.407642059,4
1.61691E+18,-439.4829626,2.068421308,-1.564362948,0.442636215,4
1.61691E+18,-439.4729438,2.882692449,-1.226214696,0.42721945,4
1.61691E+18,-439.4629255,3.504422079,-0.910192352,0.23673838,4
1.61691E+18,-439.452908,3.802798877,-0.763272191,-0.123761404,4
1.61691E+18,-439.4428899,3.631634501,-0.756682291,-0.538872191,4
1.61691E+18,-439.4328706,3.066858345,-0.821965203,-0.880301072,4
1.61691E+18,-439.422853,2.465556585,-0.959827028,-1.09336573,4
1.61691E+18,-439.4128347,1.966274354,-0.974216788,-1.174109831,4
1.61691E+18,-439.4028159,1.547514689,-0.761686967,-1.168857317,4
1.61691E+18,-439.3927979,1.241551382,-0.438076944,-1.141017416,4
1.61691E+18,-439.38278,1.064327852,-0.099825817,-1.180672842,4
1.61691E+18,-439.372761,0.974553473,0.320101138,-1.285268943,4
1.61691E+18,-439.3627429,0.844798966,0.932249286,-1.406273742,4
1.61691E+18,-439.3527249,0.720797908,1.591891006,-1.577744992,4
1.61691E+18,-439.3427058,0.699385702,2.174337843,-1.839441287,4
1.61691E+18,-439.3326877,0.579510784,2.965370147,-2.205599827,4
1.61691E+18,-439.3226699,0.28973055,4.040080861,-2.5162472,4
1.61691E+18,-439.3126516,0.120299281,5.196061161,-2.653648423,4
1.61691E+18,-439.3026328,0.348921574,5.930804592,-2.840196538,4
1.61691E+18,-439.2926147,1.211018881,5.496316027,-3.152517105,4
1.61691E+18,-439.2825969,2.699178879,3.573898935,-3.408884899,4
1.61691E+18,-439.2725779,3.888902458,1.764324379,-2.783278135,4
1.61691E+18,-439.2625598,4.188414981,1.567846114,-1.32402479,4
1.61691E+18,-439.2525417,4.533429027,2.051896289,-0.232749018,4
1.61691E+18,-439.2425227,5.224244469,2.812627563,1.010915411,4
1.61691E+18,-439.2325046,6.069235742,3.417312536,2.186870869,4
1.61691E+18,-439.2224868,7.575302568,3.385313469,2.741991015,4
1.61691E+18,-439.2124688,9.817533798,2.26507493,2.068544349,4
1.61691E+18,-439.20245,10.07317328,0.567650834,0.458806137,4
1.61691E+18,-439.1924316,4.531783013,-0.359402636,-1.331516899,4
1.61691E+18,-439.1824138,0.160156075,-0.202485981,-2.305632858,4
1.61691E+18,-439.1723948,-1.500292334,0.585634819,-2.58813784,4
1.61691E+18,-439.1623767,-1.858663874,1.465818987,-2.439158992,4
1.61691E+18,-439.1523586,-1.77719029,1.696193092,-1.897504184,4
1.61691E+18,-439.1423396,-1.270807871,1.605429702,-1.382705819,4
1.61691E+18,-439.1323218,0.213012636,1.755394638,-0.922957433,4
1.61691E+18,-439.1223037,1.617186191,2.091533888,0.22320056,4
1.61691E+18,-439.1122847,2.177934406,3.145819069,1.929445383,4
1.61691E+18,-439.1022668,1.220447803,5.196518842,4.376408327,4
1.61691E+18,-439.0922485,-1.875145053,7.891886638,7.201165304,4
1.61691E+18,-439.082231,-4.823844052,9.145601335,8.763854765,4
1.61691E+18,-439.0722117,-5.248392821,6.928136298,7.774117752,4
1.61691E+18,-439.0621938,-3.464576976,2.792340562,4.657902963,4
1.61691E+18,-439.052176,-2.651355051,0.265341958,2.060672593,4
1.61691E+18,-439.042157,-1.057002624,-0.417424617,0.216290196,4
1.61691E+18,-439.0321389,0.151407536,-0.374167659,-1.055131569,4
1.61691E+18,-439.0221208,-1.287232936,-0.178887664,-1.603059758,4
1.61691E+18,-439.0121018,-3.932464536,0.404437125,-1.892357615,4
1.61691E+18,-439.002084,-5.569822578,0.701094259,-2.236350647,4
1.61691E+18,-438.9920657,-5.980498305,0.127197808,-2.555127551,4
1.61691E+18,-438.9820469,-6.287476342,-0.774084677,-2.562184191,4
1.61691E+18,-438.9720288,-7.112476382,-2.14713887,-2.413589813,4
1.61691E+18,-438.9620107,-7.550672569,-3.148908852,-2.038941531,4
1.61691E+18,-438.9519929,-7.429385446,-3.94913627,-1.50433971,4
1.61691E+18,-438.9419739,-6.850590702,-5.024904384,-0.815577109,4
1.61691E+18,-438.9319556,-5.868645365,-6.046042498,0.060580433,4
1.61691E+18,-438.9219377,-5.425450347,-6.690012602,0.980560751,4
1.61691E+18,-438.9119187,-5.620271493,-6.639215896,1.675899661,4
1.61691E+18,-438.9019006,-4.793944588,-6.771105662,2.312412581,4
1.61691E+18,-438.8918828,-4.479518573,-6.746794227,2.409943565,4
1.61691E+18,-438.8818638,-4.583045583,-6.600986996,1.981152336,4
1.61691E+18,-438.8718457,-4.067877215,-6.677598526,1.472852246,4
1.61691E+18,-438.8618276,-3.303433643,-7.052203408,1.100309412,4
1.61691E+18,-438.8518086,-2.472757895,-7.436956174,0.95984924,4
1.61691E+18,-438.8417908,-1.263282737,-7.672611434,0.952136474,4
1.61691E+18,-438.8317727,0.187290166,-7.567304555,0.996402317,4
1.61691E+18,-438.8217539,1.727407145,-6.800524064,1.014868386,4
1.61691E+18,-438.8117356,2.911733834,-4.935500007,1.051716208,4
1.61691E+18,-438.8017175,4.523853389,-1.842478463,1.440118436,4
1.61691E+18,-438.7916997,8.732683382,3.173437728,2.191246015,4
1.61691E+18,-438.7816807,11.87727905,10.91954227,3.285108297,4
1.61691E+18,-438.7716626,9.782829564,18.5495859,4.00607747,4
1.61691E+18,-438.7616445,8.685736922,20.54244664,2.56104525,4
1.61691E+18,-438.7516255,8.875053041,13.8057664,-0.71386957,4
1.61691E+18,-438.7416077,5.282396798,5.278544799,-3.176163354,4
1.61691E+18,-438.7315896,2.214048507,0.202775904,-2.941305381,4
1.61691E+18,-438.7215708,1.293619423,-2.345204697,-1.184275543,4
1.61691E+18,-438.7115525,0.827936678,-3.748585056,0.702000853,4
1.61691E+18,-438.7015347,1.651344481,-3.184639506,3.019387569,4
1.61691E+18,-438.6915156,1.582748499,-0.749363492,5.470169779,4
1.61691E+18,-438.6814976,-0.364595529,1.578837463,6.939220587,4
1.61691E+18,-438.67148,-1.602739148,2.694633052,7.074508178,4
1.61691E+18,-438.6614617,-1.600008262,3.900360841,7.382669288,4
1.61691E+18,-438.6514424,-2.071504661,5.498897861,8.483981009,4
1.61691E+18,-438.6414248,-3.113335434,6.197108089,8.54615894,4
1.61691E+18,-438.6314067,-4.371835612,3.915207112,5.203151412,4
1.61691E+18,-438.6213879,-3.975471319,-0.449318469,0.935704395,4
1.61691E+18,-438.6113699,-3.660419866,-4.165106587,-0.902494199,4
1.61691E+18,-438.6013518,-2.849223894,-6.770635706,-1.612117217,4
1.61691E+18,-438.5913328,-2.07723882,-8.388511633,-2.129167745,4
1.61691E+18,-438.5813147,-1.98175717,-9.089191466,-2.579801681,4
1.61691E+18,-438.5712969,-2.427148821,-9.103744892,-2.973946252,4
1.61691E+18,-438.5612778,-3.249899621,-8.654853124,-3.265243028,4
1.61691E+18,-438.5512598,-4.644485848,-7.333672909,-3.855280467,4
1.61691E+18,-438.5412417,-6.566483837,-4.436781839,-4.013494468,4
1.61691E+18,-438.5312227,-8.81250686,0.5008242,-3.951985229,4
1.61691E+18,-438.5212048,-9.657447281,6.852360634,-3.49008288,4
1.61691E+18,-438.5111868,-8.908643176,12.65915657,-3.158235775,4
1.61691E+18,-438.5011687,-2.549600312,15.55819108,-3.400109764,4
1.61691E+18,-438.4911497,6.356827526,12.19859774,-3.875089914,4
1.61691E+18,-438.4811316,6.102549983,6.231067057,-3.670622111,4
1.61691E+18,-438.4711138,4.077909949,2.359060789,-3.422495199,4
1.61691E+18,-438.4610947,2.539102299,-0.198272748,-2.832603307,4
1.61691E+18,-438.4510769,1.476913797,-1.833758565,-2.152242331,4
1.61691E+18,-438.4410586,1.240024611,-3.147570881,-1.265750588,4
1.61691E+18,-438.4310396,1.183647474,-3.961182681,-0.536932456,4
1.61691E+18,-438.4210217,0.916280732,-4.247687839,0.041385903,4
1.61691E+18,-438.4110037,0.510260722,-3.96424733,0.734812989,4
1.61691E+18,-438.4009846,0.086088384,-2.891066309,1.738486758,4
1.61691E+18,-438.3909666,-0.718167559,-1.434953893,2.601844878,4
1.61691E+18,-438.3809485,-1.091128765,-0.395144981,3.243874954,4
1.61691E+18,-438.3709297,-0.785398098,-0.163709384,3.574158755,4
1.61691E+18,-438.3609116,-0.094533556,-0.724752783,3.337357832,4
1.61691E+18,-438.3508938,0.482792869,-1.269109251,2.699607918,4
1.61691E+18,-438.3408755,0.682863606,-1.228110301,2.093628522,4
1.61691E+18,-438.3308564,0.762875885,-1.389284029,1.48836195,4
1.61691E+18,-438.3208386,0.94166944,-1.761117107,0.938488472,4
1.61691E+18,-438.3108206,1.253020286,-1.99790108,0.427023051,4
1.61691E+18,-438.3008018,1.565094185,-2.006272602,-0.006603928,4
1.61691E+18,-438.2907837,1.777433451,-1.851312342,-0.387097283,4
1.61691E+18,-438.2807656,1.896561351,-1.559611954,-0.667334613,4
1.61691E+18,-438.2707466,1.898209118,-0.993694227,-0.84413378,4
1.61691E+18,-438.2607288,1.82371531,-0.067270871,-0.925095322,4
1.61691E+18,-438.2507109,1.773404927,0.946820247,-1.006091936,4
1.61691E+18,-438.2406919,1.899338414,1.602244642,-1.165369183,4
1.61691E+18,-438.2306738,2.253212642,1.671360264,-1.339652859,4
1.61691E+18,-438.2206558,2.620363116,1.606740785,-1.338040748,4
1.61691E+18,-438.2106367,2.787989381,1.731384817,-1.282626319,4
1.61691E+18,-438.2006189,2.478368136,2.105799144,-1.453013281,4
1.61691E+18,-438.1906008,1.628313149,2.793407899,-1.888050712,4
1.61691E+18,-438.1805825,0.669848642,3.733389825,-2.445484104,4
1.61691E+18,-438.1705637,0.085797877,4.896929161,-3.009575492,4
1.61691E+18,-438.1605457,0.356864642,5.993491057,-3.697380646,4
1.61691E+18,-438.1505278,1.527979383,6.320698228,-4.536308966,4
1.61691E+18,-438.1405088,3.292022607,5.277413749,-5.225552044,4
1.61691E+18,-438.1304907,5.186632239,3.630277241,-4.950937815,4
1.61691E+18,-438.1204727,6.340304846,2.752914561,-3.233230518,4
1.61691E+18,-438.1104536,6.887503259,2.268050146,-1.612376745,4
1.61691E+18,-438.1004358,7.173340309,2.540239778,-0.338416547,4
1.61691E+18,-438.0904177,7.016303242,3.586255728,0.976364906,4
1.61691E+18,-438.0803987,6.521253534,4.24707526,1.781778787,4
1.61691E+18,-438.0703809,6.719829648,3.697608317,1.551460211,4
1.61691E+18,-438.0603625,7.59252609,2.516131757,0.344800403,4
1.61691E+18,-438.0503438,6.815579594,1.309714817,-0.895721344,4
1.61691E+18,-438.0403257,4.261981737,0.368363941,-1.475893222,4
1.61691E+18,-438.0303076,1.9448715,-0.160701434,-1.540308118,4
1.61691E+18,-438.0202888,0.498791233,-0.093285602,-1.539542979,4
1.61691E+18,-438.0102705,-0.774587365,0.612138795,-1.504642638,4
1.61691E+18,-438.0002527,-1.326650755,1.307438105,-1.446006033,4
1.61691E+18,-437.9902346,-0.59497431,1.46731887,-1.182806932,4
1.61691E+18,-437.9802158,0.364400298,2.025322171,-0.128407184,4
1.61691E+18,-437.970198,0.812470229,3.568537701,1.368988844,4
1.61691E+18,-437.9601797,0.032442134,6.076453418,3.233729408,4
1.61691E+18,-437.9501606,-2.093494374,8.591430745,5.339598694,4
1.61691E+18,-437.9401428,-5.442995356,9.890756855,6.516243596,4
1.61691E+18,-437.9301248,-7.237910104,7.593250313,5.653119285,4
1.61691E+18,-437.920106,-6.463152058,3.260998523,3.44899859,4
1.61691E+18,-437.9100879,-5.224378324,0.861199481,1.561860609,4
1.61691E+18,-437.9000701,-3.225664174,0.147824417,0.307506445,4
1.61691E+18,-437.8900508,1.859628335,0.058038932,-0.899199249,4
1.61691E+18,-437.8800327,4.353714265,0.342548532,-1.331185914,4
1.61691E+18,-437.8700151,1.557197878,0.408259314,-0.797557322,4
1.61691E+18,-437.8599958,-1.508020883,0.613465076,-0.400273576,4
1.61691E+18,-437.8499778,-4.074733657,0.631219928,-0.309474968,4
1.61691E+18,-437.83996,-6.414913804,0.688542821,-0.329044907,4
1.61691E+18,-437.8299409,-6.973230409,0.005538929,-0.21806875,4
1.61691E+18,-437.8199231,-7.510150005,-0.895263079,-0.11788126,4
1.61691E+18,-437.809905,-7.95072052,-1.995947023,-0.046478696,4
1.61691E+18,-437.799887,-7.979275583,-3.091574268,0.147770641,4
1.61691E+18,-437.7898679,-7.640089221,-3.786971777,0.49899567,4
1.61691E+18,-437.7798499,-7.206195115,-4.375851862,0.932480756,4
1.61691E+18,-437.769832,-6.526226646,-5.113482831,1.31663541,4
1.61691E+18,-437.759813,-5.66242955,-5.830221234,1.536103214,4
1.61691E+18,-437.7497952,-4.807957916,-6.401587874,1.590911347,4
1.61691E+18,-437.7397769,-4.334955788,-6.816157686,1.458444366,4
1.61691E+18,-437.7297578,-4.304263713,-7.072474627,1.075358803,4
1.61691E+18,-437.71974,-4.430039964,-7.332247845,0.530074991,4
1.61691E+18,-437.7097219,-4.447818782,-7.705108513,0.066080784,4
1.61691E+18,-437.6997029,-3.881966521,-8.149690017,0.073120181,4
1.61691E+18,-437.6896848,-3.055230451,-8.504534552,0.377344389,4
1.61691E+18,-437.6796667,-2.213301488,-8.753994466,0.799391113,4
1.61691E+18,-437.6696479,-1.133418339,-8.814836765,1.338863463,4
1.61691E+18,-437.6596299,0.206392341,-8.381117431,1.788094254,4
1.61691E+18,-437.6496121,2.661281402,-6.418507445,1.910921592,4
1.61691E+18,-437.639593,8.648636149,-1.372225926,1.457485897,4
1.61691E+18,-437.6295747,18.90386578,9.874213716,1.407839238,4
1.61691E+18,-437.6195569,14.67797009,21.88594683,4.398999221,4
1.61691E+18,-437.6095378,9.569989946,29.07563387,5.34258151,4
1.61691E+18,-437.5995198,11.79046586,22.4868704,2.450474605,4
1.61691E+18,-437.589502,8.101061888,6.573790946,-0.635199353,4
1.61691E+18,-437.5794829,3.662247081,-0.80131346,-1.303189799,4
1.61691E+18,-437.5694648,2.807071683,-3.767043088,-0.476808534,4
1.61691E+18,-437.5594468,1.731070929,-5.367579173,0.889668327,4
1.61691E+18,-437.549429,0.170859255,-6.296802389,2.526781162,4
1.61691E+18,-437.5394099,-0.402352136,-6.118727795,4.570519279,4
1.61691E+18,-437.5293918,-2.486847211,-3.837787188,6.134875797,4
1.61691E+18,-437.5193738,-4.967299752,-0.550254878,6.455119558,4
1.61691E+18,-437.5093547,-5.279200632,2.353206217,5.983221008,4
1.61691E+18,-437.4993369,-3.770006029,4.978772747,5.946054184,4
1.61691E+18,-437.4893191,-3.469506833,6.552821807,6.420965944,4
1.61691E+18,-437.4792998,-4.556502444,6.688964554,5.958655891,4
1.61691E+18,-437.4692817,-4.459792128,3.694197048,2.686846051,4
1.61691E+18,-437.4592639,-4.502905294,-1.40798113,-0.796304984,4
1.61691E+18,-437.4492446,-4.482338307,-4.632766768,-2.130848538,4
1.61691E+18,-437.4392271,-3.404944052,-6.231387375,-2.638196294,4
1.61691E+18,-437.429209,-2.696951266,-6.950000924,-2.773690222,4
1.61691E+18,-437.4191902,-2.989150251,-6.671980686,-2.712135391,4
1.61691E+18,-437.4091719,-3.658723583,-5.532903006,-2.629942553,4
1.61691E+18,-437.3991541,-4.592630573,-3.895796309,-2.497956049,4
1.61691E+18,-437.389135,-5.877223808,-1.489523687,-2.41165373,4
1.61691E+18,-437.3791169,-7.424542098,2.266562538,-2.231401792,4
1.61691E+18,-437.3690991,-8.559224173,6.758809075,-2.201930783,4
1.61691E+18,-437.3590801,-8.147813117,10.09569374,-2.452188277,4
1.61691E+18,-437.349062,-5.205200161,10.23625722,-3.025735769,4
1.61691E+18,-437.3390439,0.089581487,7.216148354,-3.834589561,4
1.61691E+18,-437.3290249,2.718223186,3.234052648,-4.176899023,4
1.61691E+18,-437.3190071,3.121272072,0.806858234,-3.74974387,4
1.61691E+18,-437.308989,3.205941237,-0.232795195,-3.240757114,4
1.61691E+18,-437.2989709,2.944886162,-1.247301908,-2.677351955,4
1.61691E+18,-437.2889519,2.549892573,-2.615904383,-2.141485375,4
1.61691E+18,-437.2789338,2.089191124,-3.750906777,-1.571478917,4
1.61691E+18,-437.268916,1.575985581,-3.962895915,-0.830237941,4
1.61691E+18,-437.258897,1.016862336,-3.281951294,-0.074836338,4
1.61691E+18,-437.2488789,0.190859256,-1.802113135,0.663013535,4
1.61691E+18,-437.2388608,-0.52863809,-0.036920156,1.524449455,4
1.61691E+18,-437.2288418,-0.88702775,1.037365611,1.873420129,4
1.61691E+18,-437.218824,-0.441240961,1.077608189,1.751886922,4
1.61691E+18,-437.2088059,0.761902071,0.468989969,1.302526075,4
1.61691E+18,-437.1987869,2.237265716,-0.184305013,0.951127589,4
1.61691E+18,-437.1887688,3.545197742,-0.655486939,0.738452222,4
1.61691E+18,-437.1787507,4.438011674,-1.038400799,0.575621667,4
1.61691E+18,-437.1687319,4.594114089,-1.330550685,0.308061741,4
1.61691E+18,-437.1587139,4.030611022,-1.351402334,-0.127484809,4
1.61691E+18,-437.148696,3.21408538,-1.129571016,-0.517546787,4
1.61691E+18,-437.138677,2.467881229,-0.842594149,-0.761075557,4
1.61691E+18,-437.1286587,1.821284284,-0.558377979,-0.941411082,4
1.61691E+18,-437.1186409,1.359783793,-0.203135385,-1.125953702,4
1.61691E+18,-437.1086218,1.091512796,0.227093184,-1.315473819,4
1.61691E+18,-437.098604,1.021948846,0.628043636,-1.537169528,4
1.61691E+18,-437.0885857,1.175395194,0.970185341,-1.71070151,4
1.61691E+18,-437.0785669,1.498740429,1.319878484,-1.793847118,4
1.61691E+18,-437.0685488,1.832797611,1.760589284,-1.843610097,4
1.61691E+18,-437.0585308,2.04808696,2.085006532,-1.973327487,4
1.61691E+18,-437.0485117,1.935112907,2.314211009,-2.262790033,4
1.61691E+18,-437.0384939,1.272230598,3.048002253,-2.705022929,4
1.61691E+18,-437.0284758,0.466193032,4.363400377,-3.240989169,4
1.61691E+18,-437.0184568,0.056676411,5.421659723,-3.708233172,4
1.61691E+18,-437.008439,0.551122309,5.782018052,-4.264397566,4
1.61691E+18,-436.9984211,1.958261728,5.262548773,-4.922044314,4
1.61691E+18,-436.9884031,3.500945927,4.315083213,-5.319122308,4
1.61691E+18,-436.978384,4.053037374,3.865515737,-4.937090491,4
1.61691E+18,-436.9683657,4.029376512,4.135799244,-3.340564811,4
1.61691E+18,-436.9583479,4.657331885,3.620315234,-1.584676252,4
1.61691E+18,-436.9483289,5.599616243,3.274908975,-0.186418059,4
1.61691E+18,-436.9383108,5.76019785,3.54142173,0.948879518,4
1.61691E+18,-436.928293,5.456715254,3.812254103,1.497683029,4
1.61691E+18,-436.9182739,5.121055897,3.647193304,1.343409582,4
1.61691E+18,-436.9082559,4.863779756,2.793010424,0.827441004,4
1.61691E+18,-436.8982378,4.251605889,1.147483689,0.458591909,4
1.61691E+18,-436.8882188,2.923376341,-0.540602084,0.313331205,4
1.61691E+18,-436.8782009,1.789423749,-1.422299579,0.359144862,4
1.61691E+18,-436.8681826,1.048229535,-1.493418941,0.526408723,4
1.61691E+18,-436.8581638,0.333408948,-0.670821286,0.277380187,4
1.61691E+18,-436.8481458,-0.068013798,0.19129531,0.446957293,4
1.61691E+18,-436.8381277,0.431302336,1.241042848,1.252729194,4
1.61691E+18,-436.8281089,1.245825406,2.817770187,2.880559236,4
1.61691E+18,-436.8180908,0.908521204,5.074854702,5.246476174,4
1.61691E+18,-436.8080728,-1.579781466,7.611379259,7.782823621,4
1.61691E+18,-436.7980537,-5.206247624,8.69463393,8.446993048,4
1.61691E+18,-436.7880356,-5.803706152,6.236983003,5.915539803,4
1.61691E+18,-436.7780178,-5.186254637,1.915551882,2.73658185,4
1.61691E+18,-436.7679988,-6.30847003,0.237021288,0.619939825,4
1.61691E+18,-436.757981,-6.40162996,-0.587657265,-1.212293431,4
1.61691E+18,-436.7479626,-4.987137256,-1.094314994,-2.497208446,4
1.61691E+18,-436.7379436,-2.234623677,-0.024093408,-3.615132863,4
1.61691E+18,-436.7279258,1.64491474,1.931951813,-4.959953481,4
1.61691E+18,-436.7179077,1.934028619,3.107328302,-5.607324333,4
1.61691E+18,-436.7078887,-1.340463007,3.196972333,-5.121848508,4
1.61691E+18,-436.6978708,-5.180083255,2.240600413,-3.94205128,4
1.61691E+18,-436.6878525,-7.844378452,0.915743557,-2.738462257,4
1.61691E+18,-436.6778337,-8.399313013,0.120439566,-1.640591909,4
1.61691E+18,-436.6678157,-8.577339676,-0.261135739,-0.709839291,4
1.61691E+18,-436.6577979,-8.716042044,-0.627304216,0.23985958,4
1.61691E+18,-436.6477788,-8.594811035,-1.013988827,1.131155363,4
1.61691E+18,-436.6377605,-7.339528065,-2.041848358,1.793686521,4
1.61691E+18,-436.6277427,-6.455589514,-3.387648634,2.15578278,4
1.61691E+18,-436.6177249,-5.374802694,-4.882048988,2.164522259,4
1.61691E+18,-436.6077058,-4.069198235,-6.20733313,1.890176618,4
1.61691E+18,-436.597688,-3.043496759,-7.116546408,1.642735935,4
1.61691E+18,-436.5876697,-2.811612249,-7.825141252,1.494063669,4
1.61691E+18,-436.5776506,-2.86590498,-8.325584344,1.484058992,4
1.61691E+18,-436.5676328,-2.846876454,-8.663321677,1.471645939,4
1.61691E+18,-436.557615,-2.634138544,-8.850678478,1.707957033,4
1.61691E+18,-436.5475959,-2.244076565,-8.988978695,2.237162694,4
1.61691E+18,-436.5375779,-1.530645387,-9.010964901,2.856829985,4
1.61691E+18,-436.5275598,-0.350971492,-8.885635225,3.328831119,4
1.61691E+18,-436.5175408,0.834761556,-8.429376143,3.608243104,4
1.61691E+18,-436.5075229,1.647228278,-7.552564082,3.842131354,4
1.61691E+18,-436.4975049,2.167168682,-5.921313126,4.266499215,4
1.61691E+18,-436.4874858,3.652971888,-2.603791336,4.934400522,4
1.61691E+18,-436.4774678,8.590247088,3.978467578,5.850680669,4
1.61691E+18,-436.4674497,8.296333115,14.88699044,7.130297286,4
1.61691E+18,-436.4574309,3.589757014,25.56239077,5.196773693,4
1.61691E+18,-436.4474128,9.706464117,26.35340788,-2.116622005,4
1.61691E+18,-436.4373948,17.64765225,16.39366225,-6.720645641,4
1.61691E+18,-436.427376,13.31200205,6.613325668,-6.201294434,4
1.61691E+18,-436.4173577,4.911249948,-0.771362558,-4.270486823,4
1.61691E+18,-436.4073398,-0.509834021,-5.984719137,-3.050264937,4
1.61691E+18,-436.3973208,-3.18791692,-10.06401733,-2.431671998,4
1.61691E+18,-436.3873027,-3.982064726,-12.53961834,-1.784145224,4
1.61691E+18,-436.3772849,-2.258621808,-11.81704991,-0.936599736,4
1.61691E+18,-436.3672659,-1.183739829,-7.89190242,0.921101284,4
1.61691E+18,-436.3572478,-1.146162085,-2.216540323,3.877559811,4
1.61691E+18,-436.3472297,-1.872391955,5.685498291,8.311629469,4
1.61691E+18,-436.3372107,-4.185967004,13.35267776,13.72043088,4
1.61691E+18,-436.3271929,-5.328920064,20.04740103,16.51715068,4
1.61691E+18,-436.3171748,-0.813272193,19.28430069,9.97188031,4
1.61691E+18,-436.3071558,-0.75229487,5.17887271,1.174074175,4
1.61691E+18,-436.2971377,-2.660153275,-4.109745349,-1.52797003,4
1.61691E+18,-436.2871196,-2.637802327,-8.475040746,-2.516848381,4
1.61691E+18,-436.2771008,-1.856936027,-10.27175407,-2.492662034,4
1.61691E+18,-436.2670828,-1.165224513,-10.34645713,-2.278117659,4
1.61691E+18,-436.2570647,-1.139241346,-9.946752883,-2.512751759,4
1.61691E+18,-436.2470457,-2.148821709,-9.171873841,-2.997058832,4
1.61691E+18,-436.2370276,-3.513894256,-7.617182392,-2.970699526,4
1.61691E+18,-436.2270098,-4.517108007,-4.740715686,-2.238490874,4
1.61691E+18,-436.2169907,-5.877664538,0.289654562,-1.182435176,4
1.61691E+18,-436.2069729,-8.203761215,7.128526184,0.120903092,4
1.61691E+18,-436.1969546,-10.02277346,11.91232932,0.528326247,4
1.61691E+18,-436.1869355,-9.105724083,12.65832772,0.069939798,4
1.61691E+18,-436.1769177,-5.270888731,9.299408334,-1.136976324,4
1.61691E+18,-436.1668997,-0.034613048,3.923820627,-2.853431867,4
1.61691E+18,-436.1568806,1.565556541,0.59312196,-3.422890628,4
1.61691E+18,-436.1468628,1.258140113,0.15104864,-2.734269774,4
1.61691E+18,-436.1368447,0.930024595,-0.133863696,-1.773587882,4
1.61691E+18,-436.1268257,0.939181131,-1.090717846,-1.118332122,4
1.61691E+18,-436.1168079,0.762868871,-2.360249122,-0.870630157,4
1.61691E+18,-436.10679,0.351924848,-3.550782264,-1.054521328,4
1.61691E+18,-436.096771,-0.014604864,-3.974456004,-1.198187749,4
1.61691E+18,-436.0867529,-0.296333893,-3.273807735,-0.943169908,4
1.61691E+18,-436.0767349,-0.006163783,-2.019224438,-0.179700734,4
1.61691E+18,-436.0667158,0.232986334,-0.761415749,0.654300944,4
1.61691E+18,-436.0566978,0.523693035,0.0855553,1.200879764,4
1.61691E+18,-436.0466799,1.107158693,0.354992419,1.422779179,4
1.61691E+18,-436.0366609,1.985333859,0.222712192,1.470848798,4
1.61691E+18,-436.0266428,2.963996521,-0.252503519,1.467939048,4
1.61691E+18,-436.0166248,3.618801907,-0.924286929,1.341118256,4
1.61691E+18,-436.0066057,3.531602932,-1.780651829,0.93174835,4
1.61691E+18,-435.9965879,2.999493951,-2.279523142,0.485610849,4
1.61691E+18,-435.9865698,2.559216281,-2.313350592,0.021446693,4
1.61691E+18,-435.9765505,2.302534015,-1.910751204,-0.378887381,4
1.61691E+18,-435.9665325,2.115342633,-1.03198684,-0.641066784,4
1.61691E+18,-435.9565142,1.990876296,0.125071318,-0.838200883,4
1.61691E+18,-435.9464954,1.97256264,1.30773095,-1.077000286,4
1.61691E+18,-435.9364773,2.076183174,2.185271325,-1.432172153,4
1.61691E+18,-435.9264595,2.292953701,2.543504917,-1.844276452,4
1.61691E+18,-435.9164404,2.535149177,2.703228446,-2.20073076,4
1.61691E+18,-435.9064221,2.906733249,2.902234184,-2.479936701,4
1.61691E+18,-435.8964043,3.185068545,3.097217827,-2.751864175,4
1.61691E+18,-435.8863853,3.010748335,3.319289968,-3.049116352,4
1.61691E+18,-435.8763674,2.405872809,3.823109259,-3.270248582,4
1.61691E+18,-435.8663494,1.693790123,4.661399573,-3.431601758,4
1.61691E+18,-435.8563303,1.417029529,5.336525278,-3.624077217,4
1.61691E+18,-435.8463123,1.791343319,5.190127095,-3.953056658,4
1.61691E+18,-435.8362942,2.483365798,4.359620858,-4.313000562,4
1.61691E+18,-435.8262751,2.88588803,3.832431798,-4.153354774,4
1.61691E+18,-435.8162573,2.965390606,4.312511317,-3.309807854,4
1.61691E+18,-435.8062393,3.384363037,4.606053534,-2.031725023,4
1.61691E+18,-435.7962205,4.103611377,4.026427015,-0.800415634,4
1.61691E+18,-435.7862021,4.787971943,3.48089858,0.008373861,4
1.61691E+18,-435.7761843,5.111904622,3.136549721,0.495158137,4
1.61691E+18,-435.7661653,5.649370746,2.738566886,0.54572688,4
1.61691E+18,-435.7561472,6.715818074,2.445912558,0.335382294,4
1.61691E+18,-435.7461292,6.646732848,1.633236577,-0.01931611,4
1.61691E+18,-435.7361111,5.229805025,0.105293435,-0.241922504,4
1.61691E+18,-435.7260923,2.585348501,-0.746675861,-0.389930461,4
1.61691E+18,-435.7160742,0.53121817,-0.88325583,-0.445823613,4
1.61691E+18,-435.7060552,-0.71119129,-0.526546671,-0.187821788,4
1.61691E+18,-435.6960374,-1.136471882,0.501997336,-0.30913843,4
1.61691E+18,-435.686019,-0.831363146,1.540183031,0.133171622,4
1.61691E+18,-435.6760015,0.140911861,2.826150477,1.391463418,4
1.61691E+18,-435.6659822,1.013377417,4.842707157,3.399434641,4
1.61691E+18,-435.6559641,0.488191513,7.185549802,6.26068595,4
1.61691E+18,-435.6459453,-2.982840922,9.221507933,8.682143281,4
1.61691E+18,-435.6359272,-6.69774758,8.464139998,8.448125851,4
1.61691E+18,-435.6259094,-6.946334218,4.128423162,5.034012404,4
1.61691E+18,-435.6158901,-6.486386803,0.298213716,2.150098889,4
1.61691E+18,-435.6058721,-5.209094246,-0.90583708,0.479753063,4
1.61691E+18,-435.5958545,-2.75275674,-1.708663867,-1.015527873,4
1.61691E+18,-435.5858364,1.149214459,-1.19268126,-2.815201505,4
1.61691E+18,-435.5758174,2.837521766,0.49757835,-4.142578528,4
1.61691E+18,-435.5657993,-1.359055479,1.618084016,-4.200860037,4
1.61691E+18,-435.5557813,-6.232210966,1.902250502,-4.016089745,4
1.61691E+18,-435.5457625,-7.743803278,0.727024819,-3.334504488,4
1.61691E+18,-435.5357444,-6.910491336,-0.609751608,-2.38420619,4
1.61691E+18,-435.5257253,-7.260418873,-1.905582277,-1.660998152,4
1.61691E+18,-435.5157073,-7.584510541,-2.953687308,-0.670841744,4
1.61691E+18,-435.5056892,-7.201669746,-3.977036669,0.581447158,4
1.61691E+18,-435.4956704,-6.376209103,-4.803197569,1.911898767,4
1.61691E+18,-435.4856523,-5.805192007,-5.303724833,3.032065848,4
1.61691E+18,-435.4756345,-4.958363581,-5.541618227,3.701370592,4
1.61691E+18,-435.4656155,-3.65417951,-5.624320476,3.842984172,4
1.61691E+18,-435.4555972,-2.63481542,-5.721712929,3.478711299,4
1.61691E+18,-435.4455793,-2.092923881,-5.996158815,2.756604063,4
1.61691E+18,-435.4355603,-1.855370678,-6.310745574,2.029504279,4
1.61691E+18,-435.4255422,-1.848987699,-6.661367522,1.471394741,4
1.61691E+18,-435.4155244,-1.948730514,-6.981495548,1.093314731,4
1.61691E+18,-435.4055054,-2.16230546,-7.124037641,0.900824658,4
1.61691E+18,-435.3954873,-2.29245978,-7.167225041,0.815731569,4
1.61691E+18,-435.3854692,-2.27985515,-7.254739658,0.894690101,4
1.61691E+18,-435.3754502,-2.092106719,-7.305912211,1.045736841,4
1.61691E+18,-435.3654324,-1.557048241,-7.230099722,1.222159283,4
1.61691E+18,-435.3554143,-0.462291348,-6.95462157,1.532358036,4
1.61691E+18,-435.3453953,0.783560945,-5.922625962,1.856038932,4
1.61691E+18,-435.3353772,2.632445768,-2.741769482,2.348484157,4
1.61691E+18,-435.3253591,15.29872064,7.684265632,2.214379931,4
1.61691E+18,-435.3153403,19.78021841,26.40577637,2.391308131,4
1.61691E+18,-435.3053223,12.13856735,35.7823375,-1.136656737,4
1.61691E+18,-435.2953042,13.61515966,27.22330271,-6.370396617,4
1.61691E+18,-435.2852852,9.52808791,9.908963543,-5.852509054,4
1.61691E+18,-435.2752671,4.220149844,1.148335338,-3.787752699,4
1.61691E+18,-435.2652493,1.667827998,-3.08574717,-2.15633413,4
1.61691E+18,-435.2552302,0.305880305,-5.881334166,0.229022398,4
1.61691E+18,-435.2452124,-0.065797291,-6.956813527,2.969822451,4
1.61691E+18,-435.2351941,-1.577505338,-6.433151472,5.194356111,4
1.61691E+18,-435.225175,-3.776809864,-4.680403549,5.441457479,4
1.61691E+18,-435.2151572,-4.107811751,-1.285804365,5.46175734,4
1.61691E+18,-435.2051392,-3.72582202,2.896795208,6.400483712,4
1.61691E+18,-435.1951204,-3.873171805,5.615417039,7.219456748,4
1.61691E+18,-435.1851023,-5.248835889,5.918952826,6.820702929,4
1.61691E+18,-435.175084,-6.15445085,2.775139252,3.80437124,4
1.61691E+18,-435.1650652,-5.863323878,-1.485409238,0.428648022,4
1.61691E+18,-435.1550471,-5.828980879,-4.235783466,-1.271039342,4
1.61691E+18,-435.1450295,-5.490174456,-6.071943832,-1.943273125,4
1.61691E+18,-435.1350103,-4.325314684,-7.097196396,-1.986810361,4
1.61691E+18,-435.1249919,-2.647991712,-7.029788747,-1.595308706,4
1.61691E+18,-435.1149744,-2.204088254,-6.113790923,-1.277633626,4
1.61691E+18,-435.1049551,-3.124152596,-4.415031195,-0.966118822,4
1.61691E+18,-435.0949375,-4.798183541,-1.522017844,-0.545614944,4
1.61691E+18,-435.0849194,-6.94667441,2.425922494,-0.159403503,4
1.61691E+18,-435.0749004,-9.080988286,6.781961402,0.038712592,4
1.61691E+18,-435.0648823,-9.491641801,9.792247965,-0.168116094,4
1.61691E+18,-435.0548643,-6.895328838,9.611851651,-0.787931416,4
1.61691E+18,-435.0448452,-2.481035894,6.859387172,-2.23589209,4
1.61691E+18,-435.0348274,0.137090257,4.013787313,-3.337539326,4
1.61691E+18,-435.0248093,1.060093575,1.996846018,-3.364113152,4
1.61691E+18,-435.0147905,1.726392415,0.640022243,-3.03456468,4
1.61691E+18,-435.0047722,2.31670341,-0.61109367,-2.694261296,4
1.61691E+18,-434.9947544,2.663717689,-1.853403177,-2.283645774,4
1.61691E+18,-434.9847354,2.542764328,-3.132029613,-1.85381468,4
1.61691E+18,-434.9747173,2.188635248,-4.121304854,-1.388073776,4
1.61691E+18,-434.9646992,1.802012012,-4.253077131,-0.740519384,4
1.61691E+18,-434.9546804,1.431590554,-3.138618344,-0.025137072,4
1.61691E+18,-434.9446621,1.083149457,-1.54210377,0.837501502,4
1.61691E+18,-434.9346443,0.767971747,-0.416874582,1.6455016,4
1.61691E+18,-434.9246252,0.673224255,0.013969489,1.961206549,4
1.61691E+18,-434.9146072,1.079344219,-0.088976507,1.706182571,4
1.61691E+18,-434.9045891,2.001529207,-0.420773343,1.24366852,4
1.61691E+18,-434.8945701,3.031469636,-0.703821054,0.927715149,4
1.61691E+18,-434.8845522,3.776280287,-1.069270569,0.819355897,4
1.61691E+18,-434.8745342,3.773634157,-1.386001938,0.741708301,4
1.61691E+18,-434.8645151,3.143383366,-1.519903044,0.510539539,4
1.61691E+18,-434.8544973,2.405555413,-1.542412397,0.045271513,4
1.61691E+18,-434.844479,1.78651283,-1.363766726,-0.427897496,4
1.61691E+18,-434.83446,1.358624102,-0.989198084,-0.777246356,4
1.61691E+18,-434.8244421,1.046053944,-0.430761653,-1.013090124,4
1.61691E+18,-434.8144241,0.759351802,0.244086989,-1.210026947,4
1.61691E+18,-434.8044053,0.569072976,0.862989871,-1.363646314,4
1.61691E+18,-434.7943872,0.59065937,1.222623978,-1.60427644,4
1.61691E+18,-434.7843691,0.830914233,1.360277714,-1.829958004,4
1.61691E+18,-434.7743501,1.179855096,1.741353253,-1.907935562,4
1.61691E+18,-434.764332,1.474313843,2.249149631,-1.997413004,4
1.61691E+18,-434.7543142,1.713456946,2.60219676,-2.26580792,4
1.61691E+18,-434.7442952,1.64989662,2.851860088,-2.758760364,4
1.61691E+18,-434.7342771,1.348910517,3.390896238,-3.213234901,4
1.61691E+18,-434.724259,1.038225442,4.274091862,-3.530049857,4
1.61691E+18,-434.71424,1.066929559,5.172704251,-3.860398833,4
1.61691E+18,-434.7042222,1.648210275,5.528579298,-4.440827315,4
1.61691E+18,-434.6942031,2.600192435,5.329176669,-5.026469734,4
1.61691E+18,-434.6841851,3.346053472,5.412644641,-5.094413389,4
1.61691E+18,-434.674167,3.79313673,5.574160315,-4.267644878,4
1.61691E+18,-434.6641479,4.62455482,4.864927757,-2.769839976,4
1.61691E+18,-434.6541301,5.765238767,3.930428062,-1.69347565,4
1.61691E+18,-434.6441123,6.254539702,3.7152714,-0.953345265,4
1.61691E+18,-434.634093,6.008747079,3.694897305,-0.450397205,4
1.61691E+18,-434.6240754,5.423703796,3.442701244,-0.254146611,4
1.61691E+18,-434.6140571,4.619721409,3.226190829,-0.139672382,4
1.61691E+18,-434.6040381,3.414558853,2.594185888,0.012930209,4
1.61691E+18,-434.5940203,2.758186948,1.419282277,0.348619376,4
1.61691E+18,-434.5840024,2.245263729,0.155171857,0.552587998,4
1.61691E+18,-434.5739834,1.1889222,-0.716542004,0.513162288,4
1.61691E+18,-434.5639653,0.223016728,-0.856753023,0.753093326,4
1.61691E+18,-434.5539473,-0.149639942,-0.412636214,1.249778527,4
1.61691E+18,-434.5439282,0.069210899,0.732743781,2.3149364,4
1.61691E+18,-434.5339102,0.344599035,2.6571576,3.96711967,4
1.61691E+18,-434.5238923,0.220032744,4.812619478,6.587352438,4
1.61691E+18,-434.5138733,-0.993854386,6.615861324,9.468250404,4
1.61691E+18,-434.5038552,-3.225568313,6.949495897,10.70086445,4
1.61691E+18,-434.4938372,-4.462106835,4.847790744,8.316941604,4
1.61691E+18,-434.4838181,-4.957311442,1.519859789,4.409526753,4
1.61691E+18,-434.4738003,-6.596513065,-0.103106154,1.680643348,4
1.61691E+18,-434.4637822,-7.340968327,-1.086684061,-0.26663419,4
1.61691E+18,-434.4537634,-6.873667626,-1.635376512,-1.99441353,4
1.61691E+18,-434.4437451,-5.182181689,-1.300479956,-3.87273166,4
1.61691E+18,-434.4337271,0.302920286,1.306793377,-5.870381395,4
1.61691E+18,-434.4237083,3.719457746,3.939517962,-7.383451962,4
1.61691E+18,-434.4136902,-0.228878898,4.388080645,-7.313675831,4
1.61691E+18,-434.4036724,-4.419889157,3.414182421,-6.089076753,4
1.61691E+18,-434.3936533,-6.698105308,1.246558396,-4.123188184,4
1.61691E+18,-434.383635,-7.279321141,-0.229743406,-2.420974224,4
1.61691E+18,-434.3736172,-7.601446479,-1.012678329,-0.944982657,4
1.61691E+18,-434.3635981,-8.062782718,-1.448786019,0.414809612,4
1.61691E+18,-434.3535803,-8.123396469,-1.826180823,1.707525218,4
1.61691E+18,-434.3435623,-7.64823278,-2.602330031,2.892740964,4
1.61691E+18,-434.3335432,-6.61902651,-3.700456108,3.809689221,4
1.61691E+18,-434.3235251,-5.648057325,-4.737249472,4.15248559,4
1.61691E+18,-434.3135071,-4.585341585,-5.514167326,3.890694602,4
1.61691E+18,-434.3034883,-3.234247294,-6.044052201,3.200646638,4
1.61691E+18,-434.2934702,-2.316795764,-6.3885355,2.351650074,4
1.61691E+18,-434.2834519,-2.020155582,-6.62059186,1.706111844,4
1.61691E+18,-434.2734331,-2.165839479,-6.792582165,1.253642217,4
1.61691E+18,-434.263415,-2.485672322,-6.973941772,0.974891034,4
1.61691E+18,-434.253396,-2.741245166,-7.210874213,0.868332694,4
1.61691E+18,-434.2433782,-2.746656669,-7.474966463,0.948452086,4
1.61691E+18,-434.2333601,-2.416478958,-7.7236098,1.216659517,4
1.61691E+18,-434.2233413,-1.820167262,-7.803442631,1.713214662,4
1.61691E+18,-434.213323,-0.654357058,-7.35647277,2.288072359,4
1.61691E+18,-434.2033052,0.784106889,-6.362182916,2.851178243,4
1.61691E+18,-434.1932874,1.40724814,-4.955263862,3.344441945,4
1.61691E+18,-434.1832681,3.030883945,-2.716781171,3.363549673,4
1.61691E+18,-434.1732505,8.719246393,1.999324975,2.938047256,4
1.61691E+18,-434.1632312,14.45996797,11.30764025,2.861798714,4
1.61691E+18,-434.1532129,7.680226001,22.2944832,2.331639406,4
1.61691E+18,-434.1431953,3.242192115,27.47730319,-1.644997158,4
1.61691E+18,-434.133176,10.59965565,20.44259628,-5.949442657,4
1.61691E+18,-434.1231584,12.90978319,8.167799674,-5.425334612,4
1.61691E+18,-434.1131404,7.524256856,0.930313934,-2.992143588,4
1.61691E+18,-434.1031213,3.479726614,-4.031755516,-1.227737668,4
1.61691E+18,-434.0931033,0.212861829,-7.911674457,-0.720004711,4
1.61691E+18,-434.0830852,-2.462667878,-10.79628297,-0.385581326,4
1.61691E+18,-434.0730664,-1.970540195,-11.63431668,0.149962013,4
1.61691E+18,-434.0630483,-0.669284578,-9.039051763,0.928811712,4
1.61691E+18,-434.0530303,-1.360401048,-4.322617116,2.793228158,4
1.61691E+18,-434.0430112,-2.520405781,1.967263949,5.482285748,4
1.61691E+18,-434.0329932,-3.885868789,7.74293234,8.785918129,4
1.61691E+18,-434.0229753,-4.856719901,11.74697509,11.89831716,4
1.61691E+18,-434.0129563,-6.844146933,13.5448218,12.09313129,4
1.61691E+18,-434.0029382,-8.29953045,7.41263188,5.662094034,4
1.61691E+18,-433.9929202,-6.650241148,-0.703884767,-0.009851532,4
1.61691E+18,-433.9829011,-4.707394432,-4.450060423,-1.425273041,4
1.61691E+18,-433.9728831,-1.908258218,-6.907642961,-1.807326485,4
1.61691E+18,-433.962865,1.04111415,-8.466561087,-1.7511627,4
1.61691E+18,-433.9528462,1.444458803,-8.481157768,-1.721302399,4
1.61691E+18,-433.9428281,0.23327801,-7.455614112,-1.811630612,4
1.61691E+18,-433.9328101,-1.577073961,-5.360735591,-1.58705438,4
1.61691E+18,-433.922791,-3.539700898,-1.758300296,-1.009526002,4
1.61691E+18,-433.9127729,-5.769516298,3.281766585,-0.092787589,4
1.61691E+18,-433.9027542,-8.274116607,8.64817613,0.529705427,4
1.61691E+18,-433.8927361,-8.897580514,11.64253973,0.583483487,4
1.61691E+18,-433.8827183,-6.538640722,9.856466463,-0.772059016,4
1.61691E+18,-433.8727,-2.987663228,5.548865714,-2.077423821,4
1.61691E+18,-433.8626809,-0.272684138,2.547880064,-2.572090668,4
1.61691E+18,-433.8526631,1.901443862,0.486585832,-2.61408389,4
1.61691E+18,-433.842644,3.219565273,-1.000701475,-2.420859073,4
1.61691E+18,-433.832626,3.654866908,-2.332740937,-1.999946906,4
1.61691E+18,-433.8226079,3.526628066,-3.665644907,-1.636509023,4
1.61691E+18,-433.8125889,2.923376926,-4.356948424,-1.160531387,4
1.61691E+18,-433.802571,1.97475109,-4.259272478,-0.622198417,4
1.61691E+18,-433.792553,1.211269641,-3.772264622,-0.149299458,4
1.61691E+18,-433.7825339,0.348651525,-3.090551355,0.330897549,4
1.61691E+18,-433.7725161,-0.443353424,-2.060841228,0.764435097,4
1.61691E+18,-433.7624978,-0.915918913,-0.973362217,1.110479947,4
1.61691E+18,-433.752479,-1.003015597,-0.226924257,1.306686409,4
1.61691E+18,-433.7424609,-0.545812512,-0.006633739,1.282744977,4
1.61691E+18,-433.7324429,0.322654914,-0.304056597,1.029565166,4
1.61691E+18,-433.7224241,1.332612878,-0.57090253,0.836307616,4
1.61691E+18,-433.712406,2.214161904,-0.768671419,0.701366646,4
1.61691E+18,-433.7023879,2.90006327,-0.903842106,0.4586489,4
1.61691E+18,-433.6923689,3.430604563,-0.64300272,0.098976799,4
1.61691E+18,-433.6823508,3.916984059,-0.056937108,-0.28091859,4
1.61691E+18,-433.672333,4.304246177,0.575618452,-0.700403647,4
1.61691E+18,-433.662314,4.529549555,1.132521683,-1.128853516,4
1.61691E+18,-433.6522959,4.615517527,1.545976227,-1.542581324,4
1.61691E+18,-433.6422778,4.454831875,1.800469459,-1.906735539,4
1.61691E+18,-433.6322588,4.132577943,2.140532604,-2.119204569,4
1.61691E+18,-433.622241,3.752576756,2.431665422,-2.232276529,4
1.61691E+18,-433.6122231,3.249071938,2.421163317,-2.429175651,4
1.61691E+18,-433.6022043,2.392208441,2.224994848,-2.698663038,4
1.61691E+18,-433.592186,1.14132692,2.541035312,-2.836262121,4
1.61691E+18,-433.582168,0.014708909,3.369170728,-2.765487626,4
1.61691E+18,-433.5721492,-0.581889203,4.238288727,-2.644866566,4
1.61691E+18,-433.5621311,-0.360585124,4.816256373,-2.701965295,4
1.61691E+18,-433.5521118,0.972984616,4.938088855,-2.849946656,4
1.61691E+18,-433.5420942,2.530599843,4.332804748,-2.884975883,4
1.61691E+18,-433.5320759,3.339363034,3.712218442,-2.598613933,4
1.61691E+18,-433.5220571,3.617110885,3.548528932,-1.79423641,4
1.61691E+18,-433.5120391,3.858991888,3.095985071,-0.682857468,4
1.61691E+18,-433.5020212,4.435824393,2.844609678,0.339935135,4
1.61691E+18,-433.4920022,5.263834136,2.956455604,1.183331832,4
1.61691E+18,-433.4819841,6.554599338,2.908819993,1.488227802,4
1.61691E+18,-433.4719661,8.396092882,3.140409319,1.134393322,4
1.61691E+18,-433.461947,8.644003228,3.303403248,0.649543228,4
1.61691E+18,-433.451929,6.332971434,2.22583013,0.342807475,4
1.61691E+18,-433.4419111,2.711412337,0.702537444,0.121451666,4
1.61691E+18,-433.4318921,0.346847691,-0.105370592,0.146556297,4
1.61691E+18,-433.421874,-0.712813339,-0.1070055,0.414545847,4
1.61691E+18,-433.411856,-1.088793016,0.292195478,0.785363903,4
1.61691E+18,-433.4018369,-0.812282013,0.822812759,0.665274173,4
1.61691E+18,-433.3918191,0.140648826,1.695369501,0.966121745,4
1.61691E+18,-433.381801,1.044376951,2.986080927,2.095693345,4
1.61691E+18,-433.3717822,0.62541621,4.606728072,3.869579333,4
1.61691E+18,-433.3617639,-1.660021124,6.462452385,5.507594377,4
1.61691E+18,-433.3517461,-5.362694908,7.715580807,6.583033406,4
1.61691E+18,-433.3417271,-8.20700648,5.935496549,5.542390381,4
1.61691E+18,-433.331709,-7.985296158,2.31459387,2.490276308,4
1.61691E+18,-433.3216912,-6.61859864,0.889587956,0.570606762,4
1.61691E+18,-433.3116721,-3.683682668,0.792785285,-0.559672111,4
1.61691E+18,-433.3016538,2.060471225,0.852898686,-1.585775738,4
1.61691E+18,-433.291635,5.27993713,0.870285874,-1.891168844,4
1.61691E+18,-433.2816169,2.547934424,0.840296978,-1.53733524,4
1.61691E+18,-433.2715991,-0.962972925,0.844683815,-1.451156255,4
1.61691E+18,-433.2615801,-4.309095371,0.634829351,-1.529092458,4
1.61691E+18,-433.251562,-6.676689595,0.216755914,-1.611720911,4
1.61691E+18,-433.2415439,-7.696313212,-0.345447761,-1.688656851,4
1.61691E+18,-433.2315249,-7.750123128,-1.188569733,-1.571575509,4
1.61691E+18,-433.2215071,-7.101959664,-2.363028523,-1.311066086,4
1.61691E+18,-433.211489,-6.835777748,-3.296101985,-1.034204662,4
1.61691E+18,-433.20147,-6.887449483,-3.978051983,-0.59121072,4
1.61691E+18,-433.1914519,-6.47623132,-4.841133625,-0.016843875,4
1.61691E+18,-433.1814338,-5.788823056,-5.749605144,0.534966124,4
1.61691E+18,-433.171415,-5.309186605,-6.52909431,1.221165596,4
1.61691E+18,-433.161397,-4.993665196,-6.979051662,1.716085833,4
1.61691E+18,-433.1513789,-4.594255544,-7.183200024,1.790997574,4
1.61691E+18,-433.1413601,-4.15645917,-7.301315531,1.60099172,4
1.61691E+18,-433.1313418,-3.833824129,-7.438034032,1.155264699,4
1.61691E+18,-433.121324,-3.479158459,-7.51717888,0.611380378,4
1.61691E+18,-433.1113049,-2.996736176,-7.402216869,0.228167389,4
1.61691E+18,-433.1012869,-2.556609898,-7.311108611,0.067988225,4
1.61691E+18,-433.0912681,-2.097481982,-7.267296942,0.107903618,4
1.61691E+18,-433.08125,-1.484631824,-7.150324175,0.252483207,4
1.61691E+18,-433.0712322,-0.409001657,-6.776117352,0.465519955,4
1.61691E+18,-433.0612129,1.871877576,-5.642274066,0.887550312,4
1.61691E+18,-433.0511948,5.206290879,-2.988837532,1.558322645,4
1.61691E+18,-433.0411772,10.25925582,2.28139595,2.542360424,4
1.61691E+18,-433.031158,22.05903311,13.63732005,4.661896417,4
1.61691E+18,-433.0211401,16.9047109,28.00409302,6.816814689,4
1.61691E+18,-433.0111221,6.970211938,30.49203329,3.118901251,4
1.61691E+18,-433.001103,7.709303627,16.29120959,-1.929481623,4
1.61691E+18,-432.9910852,4.862634093,4.151851384,-2.48136761,4
1.61691E+18,-432.9810671,2.698655732,-1.024692592,-0.716568599,4
1.61691E+18,-432.9710488,1.473835704,-4.17878849,1.320613228,4
1.61691E+18,-432.9610308,1.115153199,-6.044788114,3.163255941,4
1.61691E+18,-432.9510129,1.197729776,-6.590014351,5.102560455,4
1.61691E+18,-432.9409939,-1.809278788,-5.608343155,6.286253522,4
1.61691E+18,-432.9309758,-3.66941215,-2.577976511,6.356794793,4
1.61691E+18,-432.9209578,-3.493710716,1.536250367,6.498043923,4
1.61691E+18,-432.9109387,-3.520790446,5.170861838,7.165099719,4
1.61691E+18,-432.9009209,-4.806150574,6.271822261,7.169084989,4
1.61691E+18,-432.8909019,-6.601326018,4.67007797,5.579072636,4
1.61691E+18,-432.8808838,-6.981980701,1.570963953,2.127900209,4
1.61691E+18,-432.870866,-6.913755306,-2.455975103,-0.592254822,4
1.61691E+18,-432.8608477,-6.182794317,-5.754545523,-1.912306617,4
1.61691E+18,-432.8508286,-4.18726698,-7.562770419,-2.439260407,4
1.61691E+18,-432.8408108,-2.300313416,-7.943309951,-2.550366912,4
1.61691E+18,-432.8307917,-1.980792708,-7.289028296,-2.638864988,4
1.61691E+18,-432.8207739,-3.172971864,-5.850974684,-2.700733707,4
1.61691E+18,-432.8107559,-5.048758722,-3.678357673,-2.644475813,4
1.61691E+18,-432.8007368,-6.498072565,-0.171475926,-2.315922196,4
1.61691E+18,-432.7907188,-7.385473824,4.797748656,-1.769678015,4
1.61691E+18,-432.7807007,-7.59534407,10.00677393,-1.562676017,4
1.61691E+18,-432.7706819,-5.460930826,13.19029174,-2.223338021,4
1.61691E+18,-432.7606638,-0.56370122,11.33333584,-3.715921388,4
1.61691E+18,-432.7506458,2.631125918,6.381434729,-4.305609867,4
1.61691E+18,-432.7406267,2.801941919,2.905290065,-4.155283112,4
1.61691E+18,-432.7306086,2.474418522,0.525596823,-3.959721669,4
1.61691E+18,-432.7205908,2.711985753,-1.413668528,-3.273519858,4
1.61691E+18,-432.7105718,2.609467044,-2.70468449,-2.439260407,4
1.61691E+18,-432.7005537,2.201028866,-3.60563146,-1.61710465,4
1.61691E+18,-432.6905356,1.696888089,-3.894174261,-0.860019916,4
1.61691E+18,-432.6805166,1.340375329,-3.921872415,-0.278005625,4
1.61691E+18,-432.6704988,1.133212003,-3.519535477,0.381155034,4
1.61691E+18,-432.6604797,0.728915163,-2.402978256,1.303839788,4
1.61691E+18,-432.6504617,0.415911874,-1.301274321,2.419904549,4
1.61691E+18,-432.6404438,0.316360198,-0.704901835,3.465607195,4
1.61691E+18,-432.6304248,0.435690926,-0.248038357,4.02011184,4
1.61691E+18,-432.6204067,0.914749869,-0.089441201,3.833803379,4
1.61691E+18,-432.6103889,1.581145156,-0.297840791,2.907854362,4
1.61691E+18,-432.6003696,2.128021498,-0.262188463,1.947093268,4
1.61691E+18,-432.5903521,2.751309463,-0.26264439,1.072422311,4
1.61691E+18,-432.580334,3.508061897,-0.62778177,0.201749484,4
1.61691E+18,-432.5703147,4.012224886,-0.985880923,-0.560928248,4
1.61691E+18,-432.5602969,3.948040291,-1.030353686,-1.13610071,4
1.61691E+18,-432.5502788,3.444185345,-0.83243399,-1.492671922,4
1.61691E+18,-432.54026,2.813448816,-0.355948696,-1.644757504,4
1.61691E+18,-432.5302419,2.27083247,0.396900884,-1.689319699,4
1.61691E+18,-432.5202239,1.968304398,1.250218088,-1.793088701,4
1.61691E+18,-432.5102048,1.92487033,1.729041469,-2.017011731,4
1.61691E+18,-432.5001868,2.083106836,1.633411349,-2.256262677,4
1.61691E+18,-432.4901689,2.330249705,1.393441148,-2.305871635,4
1.61691E+18,-432.4801499,2.553315533,1.286546123,-2.235605674,4
1.61691E+18,-432.4701321,2.351519872,1.496066826,-2.174096728,4
1.61691E+18,-432.460113,1.535419177,2.234667516,-2.217704691,4
1.61691E+18,-432.4500947,0.484052514,3.619017596,-2.302745612,4
1.61691E+18,-432.4400769,-0.224616565,5.274640777,-2.545021459,4
1.61691E+18,-432.4300579,-0.083545714,6.366483828,-3.052857877,4
1.61691E+18,-432.4200398,1.135789745,6.280948401,-3.753661044,4
1.61691E+18,-432.410022,2.690003054,5.080463774,-4.392621211,4
1.61691E+18,-432.4000029,3.559102933,3.816165139,-4.528604383,4
1.61691E+18,-432.3899849,3.813158943,3.530997367,-3.564942891,4
1.61691E+18,-432.3799668,4.586322997,3.737373341,-1.910036334,4
1.61691E+18,-432.3699478,6.251049522,3.791905727,-0.699506698,4
1.61691E+18,-432.3599299,8.081946268,4.404625537,0.179501704,4
1.61691E+18,-432.3499119,9.535855037,5.23072857,0.747174458,4
1.61691E+18,-432.3398928,8.874147616,4.959270175,0.871167625,4
1.61691E+18,-432.3298748,5.419367812,3.09379779,0.67408058,4
1.61691E+18,-432.3198569,1.794092325,1.128220771,0.244357038,4
1.61691E+18,-432.3098379,-0.158400171,-0.242443313,0.216900876,4
1.61691E+18,-432.2998198,-1.259779697,-0.985023429,0.31839638,4
1.61691E+18,-432.289801,-1.707066953,-0.801406399,-0.386940339,4
1.61691E+18,-432.2797827,-1.141357316,-0.476720856,-0.273632232,4
1.61691E+18,-432.2697646,-0.144816467,0.211751238,0.530753182,4
1.61691E+18,-432.2597458,0.877380216,1.705958115,1.857179188,4
1.61691E+18,-432.2497278,0.738668495,3.879613236,3.904912805,4
1.61691E+18,-432.23971,-1.633613594,6.702428431,6.570024871,4
1.61691E+18,-432.2296909,-5.431116702,8.979988748,8.888574201,4
1.61691E+18,-432.2196726,-6.99437958,7.548747154,7.906421359,4
1.61691E+18,-432.2096548,-5.406323622,3.377607133,4.690832881,4
1.61691E+18,-432.1996357,-4.403523713,0.844603735,2.521711896,4
1.61691E+18,-432.1896179,-3.688130879,0.265585704,0.552528084,4
1.61691E+18,-432.1795999,0.233868377,-0.072857731,-1.631307071,4
1.61691E+18,-432.1695808,2.848798362,0.518808185,-3.352198843,4
1.61691E+18,-432.1595627,1.059780272,0.838711755,-3.731339322,4
1.61691E+18,-432.1495447,-2.280366022,1.000595092,-3.396499172,4
1.61691E+18,-432.1395256,-4.891809919,1.066996779,-2.959844077,4
1.61691E+18,-432.1295078,-6.787018101,1.176273146,-2.812586647,4
1.61691E+18,-432.1194888,-7.095030742,0.489884289,-2.396952712,4
1.61691E+18,-432.1094707,-7.11618342,-1.159289278,-1.712522588,4
1.61691E+18,-432.0994526,-7.646520131,-2.290254963,-1.117602346,4
1.61691E+18,-432.0894336,-7.693205894,-3.272095086,-0.388007092,4
1.61691E+18,-432.0794158,-7.380141815,-4.467331292,0.186258192,4
1.61691E+18,-432.0693977,-7.037973222,-5.315964136,0.76993954,4
1.61691E+18,-432.0593789,-6.500809296,-6.067090547,1.329125182,4
1.61691E+18,-432.0493606,-5.565487763,-6.639077949,1.751893644,4
1.61691E+18,-432.039343,-4.7881473,-6.832323224,2.066690246,4
1.61691E+18,-432.0293237,-4.358538908,-7.080639813,2.085735284,4
1.61691E+18,-432.0193059,-4.222008623,-7.406337163,1.709795501,4
1.61691E+18,-432.0092881,-3.947565075,-7.734653172,1.045650332,4
1.61691E+18,-431.999269,-3.462996428,-7.838411068,0.543604042,4
1.61691E+18,-431.9892507,-3.004702041,-7.872336719,0.388818846,4
1.61691E+18,-431.9792317,-2.65210207,-7.88830235,0.486955542,4
1.61691E+18,-431.9692136,-2.265243272,-7.89110747,0.703253921,4
1.61691E+18,-431.9591958,-1.400473531,-7.862416798,1.104353573,4
1.61691E+18,-431.9491768,0.790778622,-7.323184249,1.335968326,4
1.61691E+18,-431.9391587,4.818251346,-5.414398792,1.472765445,4
1.61691E+18,-431.9291406,12.45877896,0.360928238,2.003788676,4
1.61691E+18,-431.9191216,26.48048762,15.61845529,3.665630586,4
1.61691E+18,-431.9091038,16.25165616,30.24350861,5.972592062,4
1.61691E+18,-431.8990857,6.734524528,30.4296461,2.505879828,4
1.61691E+18,-431.8890667,7.438301743,15.73230379,-2.061991859,4
1.61691E+18,-431.8790488,4.085578876,3.550264962,-3.143030315,4
1.61691E+18,-431.8690305,1.278088676,-1.461907366,-2.521287825,4
1.61691E+18,-431.8590115,0.445348397,-4.626308971,-1.331205349,4
1.61691E+18,-431.8489937,-0.53792965,-6.910873613,0.246860984,4
1.61691E+18,-431.8389746,0.488676666,-8.858767092,1.994455469,4
1.61691E+18,-431.8289568,1.605617334,-8.836627156,4.014096233,4
1.61691E+18,-431.8189385,-0.722881728,-5.654996185,5.11334956,4
1.61691E+18,-431.8089197,-2.2559786,-0.547800471,4.637429792,4
1.61691E+18,-431.7989016,-0.59189388,5.550916217,4.288744072,4
1.61691E+18,-431.7888835,5.053424376,14.55783915,4.097938884,4
1.61691E+18,-431.7788647,4.73959925,16.61899777,1.139129703,4
1.61691E+18,-431.7688467,-6.70822455,5.255512298,-0.571498742,4
1.61691E+18,-431.7588284,-10.55811602,-3.689888537,-0.455375578,4
1.61691E+18,-431.7488096,-7.970123139,-7.158873392,-0.227644388,4
1.61691E+18,-431.7387915,-6.402530124,-8.739891122,-0.475363596,4
1.61691E+18,-431.7287737,-5.483282943,-9.222966315,-0.611141601,4
1.61691E+18,-431.7187546,-5.065041164,-8.469628658,-0.638059419,4
1.61691E+18,-431.7087366,-5.270567244,-6.814360866,-0.283716696,4
1.61691E+18,-431.6987185,-5.637174697,-4.790715104,0.413573202,4
1.61691E+18,-431.6886995,-6.23850276,-2.141290729,1.251934829,4
1.61691E+18,-431.6786816,-7.648247977,1.890743604,2.000536104,4
1.61691E+18,-431.6686626,-10.53996778,7.478039295,2.055402836,4
1.61691E+18,-431.6586445,-12.2020663,11.43077914,0.948337666,4
1.61691E+18,-431.6486267,-10.54444639,11.2895306,-0.450064904,4
1.61691E+18,-431.6386077,-6.640455083,8.307076043,-1.38671184,4
1.61691E+18,-431.6285896,-2.405067922,4.714693941,-2.542443133,4
1.61691E+18,-431.6185715,1.873793638,1.586275504,-3.60216583,4
1.61691E+18,-431.6085525,3.505331011,0.084943306,-3.117486416,4
1.61691E+18,-431.5985347,3.787871357,0.091837741,-2.098748641,4
1.61691E+18,-431.5885164,3.726601772,-0.371631419,-1.409737911,4
1.61691E+18,-431.5784973,3.48481137,-1.613802394,-1.062650274,4
1.61691E+18,-431.5684795,2.724445422,-3.264592163,-0.980095909,4
1.61691E+18,-431.5584614,2.045976836,-4.462963744,-0.847764538,4
1.61691E+18,-431.5484426,2.348492633,-4.400233439,-0.098292616,4
1.61691E+18,-431.5384246,2.752110843,-2.984386398,1.023999349,4
1.61691E+18,-431.5284055,2.452902855,-1.339616035,2.272704109,4
1.61691E+18,-431.5183875,1.550405149,-0.329446474,3.090066494,4
1.61691E+18,-431.5083694,1.143614739,-0.309601371,3.107538146,4
1.61691E+18,-431.4983506,1.69903153,-0.933363384,2.678180222,4
1.61691E+18,-431.4883325,2.48791747,-1.686060405,2.011432615,4
1.61691E+18,-431.4783145,2.835305259,-2.109524887,1.48506437,4
1.61691E+18,-431.4682957,2.577539873,-2.098987711,1.129986611,4
1.61691E+18,-431.4582773,2.168615958,-1.849124477,0.825624894,4
1.61691E+18,-431.4482598,1.946563107,-1.500149711,0.458799415,4
1.61691E+18,-431.4382405,1.936549078,-1.07765612,0.01605857,4
1.61691E+18,-431.4282224,1.863634063,-0.453208463,-0.346105348,4
1.61691E+18,-431.4182046,1.720115235,0.307252762,-0.555101442,4
1.61691E+18,-431.4081855,1.499516089,1.282268007,-0.742059307,4
1.61691E+18,-431.3981677,1.338914608,2.389991934,-0.994632969,4
1.61691E+18,-431.3881484,1.522250484,3.1476948,-1.443604525,4
1.61691E+18,-431.3781306,1.996727944,3.199899034,-1.991852739,4
1.61691E+18,-431.3681128,2.599174782,2.863150713,-2.370419218,4
1.61691E+18,-431.3580938,3.037923927,2.589422034,-2.683651639,4
1.61691E+18,-431.3480757,3.135330993,2.438084641,-3.062352266,4
1.61691E+18,-431.3380576,2.803661582,2.650625568,-3.598230244,4
1.61691E+18,-431.3280386,2.011540313,3.532652733,-4.131409776,4
1.61691E+18,-431.3180208,1.215840017,4.752673835,-4.554053005,4
1.61691E+18,-431.3080027,1.394394504,5.767968484,-5.12809997,4
1.61691E+18,-431.2979836,2.786234646,6.331130775,-5.865407114,4
1.61691E+18,-431.2879656,4.412579126,6.039771747,-6.430663162,4
1.61691E+18,-431.2779475,5.227900653,4.988300454,-6.457680933,4
1.61691E+18,-431.2679287,5.347023876,4.484081935,-5.328633648,4
1.61691E+18,-431.2579106,5.740500631,4.812982466,-3.135805624,4
1.61691E+18,-431.2478928,6.995213108,4.158423748,-1.327823305,4
1.61691E+18,-431.2378738,8.457554774,3.516370291,0.061089552,4
1.61691E+18,-431.2278555,9.471518466,3.091300712,1.245204351,4
1.61691E+18,-431.2178367,9.105472739,2.478634678,1.735399606,4
1.61691E+18,-431.2078186,7.045954284,1.58079152,1.710994355,4
1.61691E+18,-431.1978005,2.917752656,0.924420199,1.158272795,4
1.61691E+18,-431.1877817,-0.765637751,0.552987518,0.193975635,4
1.61691E+18,-431.1777637,-2.622928583,0.596074965,-0.882627469,4
1.61691E+18,-431.1677456,-2.66973768,1.159603751,-1.867867756,4
1.61691E+18,-431.1577266,-1.647744995,1.19249129,-1.607244935,4
1.61691E+18,-431.1477085,-0.406506917,1.638413103,-0.735971804,4
1.61691E+18,-431.1376907,0.797988115,3.121014298,0.823436737,4
1.61691E+18,-431.1276716,1.13081371,5.884247423,3.131377871,4
1.61691E+18,-431.1176536,-0.310628961,8.635192145,5.895623973,4
1.61691E+18,-431.1076355,-4.404482329,10.89584107,8.796127973,4
1.61691E+18,-431.0976165,-9.783211841,10.97229654,11.10528579,4
1.61691E+18,-431.0875986,-8.94922653,6.63304919,10.10035238,4
1.61691E+18,-431.0775796,-5.20735354,1.362949564,6.611123774,4
1.61691E+18,-431.0675618,-3.628465223,-0.987411785,3.809425309,4
1.61691E+18,-431.0575435,-0.391859968,-1.095712586,1.754127833,4
1.61691E+18,-431.0475244,3.83031466,-0.32063013,-0.219509889,4
1.61691E+18,-431.0375066,3.294935864,-0.83257369,-1.053557013,4
1.61691E+18,-431.0274885,-0.73175477,-1.064511976,-1.270884736,4
1.61691E+18,-431.0174695,-5.165787019,-0.6675579,-1.387129335,4
1.61691E+18,-431.0074517,-9.010534693,0.038740942,-2.256776034,4
1.61691E+18,-430.9974333,-10.43506948,0.341173737,-3.470561895,4
1.61691E+18,-430.9874146,-8.142396938,-0.83770287,-3.931725408,4
1.61691E+18,-430.9773965,-6.49647682,-2.555156777,-3.696384913,4
1.61691E+18,-430.9673779,-7.603668831,-4.034214015,-2.773647844,4
1.61691E+18,-430.9573599,-8.151363503,-5.081609437,-1.496677651,4
1.61691E+18,-430.9473418,-7.224798109,-6.26458588,-0.243176596,4
1.61691E+18,-430.9373228,-6.558478226,-7.237508537,0.681006726,4
1.61691E+18,-430.9273049,-5.973737725,-7.554760715,1.405926536,4
1.61691E+18,-430.9172869,-5.042430688,-7.750348169,2.030501911,4
1.61691E+18,-430.9072678,-4.449248522,-7.797224487,2.178105817,4
1.61691E+18,-430.89725,-4.233891953,-7.530873644,1.664046726,4
1.61691E+18,-430.8872317,-4.028648782,-7.377046772,0.745503456,4
1.61691E+18,-430.8772129,-3.65085358,-7.332215112,0.013134499,4
1.61691E+18,-430.8671948,-3.144464732,-7.476423676,-0.301899565,4
1.61691E+18,-430.8571758,-2.796168011,-7.761859159,-0.446164974,4
1.61691E+18,-430.847158,-2.744857511,-7.937133893,-0.485792635,4
1.61691E+18,-430.8371401,-2.575819626,-7.850200875,-0.320363442,4
1.61691E+18,-430.8271208,-1.438183376,-7.206899464,-0.089717388,4
1.61691E+18,-430.817103,1.981968766,-4.941978264,-0.003266308,4
1.61691E+18,-430.807085,9.174491914,1.134820023,-0.289155672,4
1.61691E+18,-430.7970662,23.6948106,14.43211083,0.832635942,4
1.61691E+18,-430.7870481,19.66756701,27.81379608,5.733282955,4
1.61691E+18,-430.77703,8.208523899,31.01351566,6.205843184,4
1.61691E+18,-430.767011,7.21875649,19.23039841,3.297202347,4
1.61691E+18,-430.7569929,4.720566048,4.970182614,0.804862969,4
1.61691E+18,-430.7469751,2.854408603,-2.10999835,0.696828418,4
1.61691E+18,-430.7369561,1.718979509,-4.798516718,1.680819874,4
1.61691E+18,-430.726938,0.523612371,-5.817687331,3.461050263,4
1.61691E+18,-430.7169192,1.166167932,-5.931026126,5.968841769,4
1.61691E+18,-430.7069009,0.584990676,-5.125527489,8.003038736,4
1.61691E+18,-430.6968831,-2.493787824,-3.658834642,7.895733376,4
1.61691E+18,-430.686864,-3.364012322,-1.589151936,6.289674729,4
1.61691E+18,-430.6768459,-2.019242558,1.653652173,5.401563275,4
1.61691E+18,-430.6668281,-1.163587852,5.467580347,5.323585133,4
1.61691E+18,-430.6568091,-1.464251884,8.503803315,4.104389375,4
1.61691E+18,-430.646791,0.132370827,9.383511097,0.659200991,4
1.61691E+18,-430.6367729,-4.738952768,3.03737623,-2.1894679,4
1.61691E+18,-430.6267539,-7.234658993,-3.298648747,-2.610289466,4
1.61691E+18,-430.6167361,-5.591891786,-6.413897905,-2.725557183,4
1.61691E+18,-430.606717,-4.727636425,-7.811158904,-2.963361438,4
1.61691E+18,-430.596699,-4.846122519,-7.868158556,-3.272525294,4
1.61691E+18,-430.5866809,-5.457548782,-7.084693472,-3.334617009,4
1.61691E+18,-430.5766619,-6.326904681,-6.043816054,-3.305352628,4
1.61691E+18,-430.566644,-7.013336794,-4.699424476,-3.497024955,4
1.61691E+18,-430.556626,-7.264830844,-2.310575282,-3.159523477,4
1.61691E+18,-430.5466069,-7.525501888,1.177912145,-2.617780698,4
1.61691E+18,-430.5365889,-8.294806344,5.713228593,-2.202758174,4
1.61691E+18,-430.5265708,-8.392108196,9.411726553,-2.186580069,4
1.61691E+18,-430.516552,-6.265340498,10.02959366,-2.390905541,4
1.61691E+18,-430.5065339,-1.585190632,7.644194902,-2.435949967,4
1.61691E+18,-430.4965161,5.083522577,4.534696855,-2.781497681,4
1.61691E+18,-430.4864971,6.31285862,1.494023337,-2.572824828,4
1.61691E+18,-430.4764788,4.74038134,-0.195367089,-2.202116369,4
1.61691E+18,-430.46646,2.99946414,-0.681065617,-1.871424571,4
1.61691E+18,-430.4564419,1.893392657,-1.249189914,-1.376856801,4
1.61691E+18,-430.4464241,1.376865861,-2.252122509,-0.930072234,4
1.61691E+18,-430.436405,0.77421444,-3.129948715,-0.552131194,4
1.61691E+18,-430.426387,0.388970676,-3.145764708,-0.081020871,4
1.61691E+18,-430.4163689,0.294163564,-2.128829891,0.599539426,4
1.61691E+18,-430.4063499,0.155291099,-0.824815331,1.427442787,4
1.61691E+18,-430.3963318,0.030223289,-0.21616204,1.794822101,4
1.61691E+18,-430.386314,0.551638442,-0.144987732,1.835189475,4
1.61691E+18,-430.3762949,1.592470267,-0.516617982,1.744686782,4
1.61691E+18,-430.3662769,2.511982821,-0.977293712,1.654070107,4
1.61691E+18,-430.3562578,2.783739907,-1.230933542,1.503411051,4
1.61691E+18,-430.3462397,2.389117489,-1.543414852,1.174154254,4
1.61691E+18,-430.3362219,1.788935089,-1.836925505,0.673622899,4
1.61691E+18,-430.3262029,1.464534792,-1.888874303,0.185287009,4
1.61691E+18,-430.3161851,1.348860833,-1.694252479,-0.322302447,4
1.61691E+18,-430.3061667,1.414574537,-1.301382458,-0.676424513,4
1.61691E+18,-430.2961477,1.569877327,-0.547446251,-0.705268915,4
1.61691E+18,-430.2861299,1.713165854,0.472996282,-0.589249795,4
1.61691E+18,-430.2761118,1.920416273,1.531727921,-0.4609601,4
1.61691E+18,-430.2660928,2.19996036,2.163593746,-0.418940867,4
1.61691E+18,-430.256075,2.548950323,2.009136175,-0.581971621,4
1.61691E+18,-430.2460559,2.848608977,1.793850918,-0.766194508,4
1.61691E+18,-430.2360378,2.9728304,2.044459417,-1.025931778,4
1.61691E+18,-430.22602,2.927433508,2.355582299,-1.525128669,4
1.61691E+18,-430.2160007,2.571034145,2.613082311,-2.446559039,4
1.61691E+18,-430.2059832,1.778967821,3.324102921,-3.446383147,4
1.61691E+18,-430.1959651,0.965260159,4.512212051,-4.368168907,4
1.61691E+18,-430.1859458,0.815601513,5.768970939,-5.191484355,4
1.61691E+18,-430.175928,1.822860739,6.572164221,-6.076187461,4
1.61691E+18,-430.1659102,3.490232226,6.337965589,-6.93383714,4
1.61691E+18,-430.1558911,4.898766898,5.535148739,-7.177571078,4
1.61691E+18,-430.145873,5.389994418,5.552113902,-6.200045896,4
1.61691E+18,-430.135855,5.725792891,5.199695134,-4.059161994,4
1.61691E+18,-430.1258359,6.870745601,3.649150284,-2.319109887,4
1.61691E+18,-430.1158179,7.224514031,2.741113648,-0.96214758,4
1.61691E+18,-430.1057991,6.395953083,2.568610133,0.176518596,4
1.61691E+18,-430.095781,4.872326051,2.137317734,0.870570536,4
1.61691E+18,-430.0857632,3.341322936,1.431130535,1.010247887,4
1.61691E+18,-430.0757441,1.992635122,0.956742506,0.904837839,4
1.61691E+18,-430.0657258,0.541471853,1.014770917,0.252483646,4
1.61691E+18,-430.055708,-0.412847811,1.028601289,-0.20315409,4
1.61691E+18,-430.045689,-1.248928048,1.214984862,-0.368650942,4
1.61691E+18,-430.0356711,-1.462059926,1.925682816,-0.092576869,4
1.61691E+18,-430.0256521,-0.788165809,3.144640673,0.725158441,4
1.61691E+18,-430.015634,0.263738615,5.040298352,2.35553466,4
1.61691E+18,-430.005616,0.471945312,7.553920757,5.17106759,4
1.61691E+18,-429.9955969,-0.804126764,9.520544071,9.395791902,4
1.61691E+18,-429.9855789,-4.184941752,9.484439907,12.47444882,4
1.61691E+18,-429.975561,-6.205915665,5.913426756,10.72488362,4
1.61691E+18,-429.965542,-5.493975017,1.188361059,6.317032107,4
1.61691E+18,-429.9555239,-6.460519371,-0.726973381,3.27234117,4
1.61691E+18,-429.9455059,-8.134048796,-1.117490702,1.022809847,4
1.61691E+18,-429.9354868,-8.472732469,-1.171710953,-0.942780324,4
1.61691E+18,-429.925469,-6.585167495,-0.817025408,-2.758008377,4
1.61691E+18,-429.91545,-1.896449707,0.551274869,-5.067636441,4
1.61691E+18,-429.9054321,2.122672538,1.84342305,-6.331308469,4
1.61691E+18,-429.8954138,1.006842462,1.697253415,-5.884437393,4
1.61691E+18,-429.8853948,-2.775167309,1.261196578,-4.884401104,4
1.61691E+18,-429.875377,-5.448826546,0.381266678,-3.991717228,4
1.61691E+18,-429.8653589,-7.353175482,-1.153336507,-2.961390138,4
1.61691E+18,-429.8553401,-7.705195607,-2.289644138,-2.287529046,4
1.61691E+18,-429.845322,-7.177302198,-2.83975464,-1.490206409,4
1.61691E+18,-429.8353037,-7.096016246,-3.523185816,-0.679269381,4
1.61691E+18,-429.8252849,-6.652165394,-4.42951974,0.202928172,4
1.61691E+18,-429.8152668,-6.237307997,-5.360860094,0.992543449,4
1.61691E+18,-429.8052478,-5.778751744,-6.251286254,1.626446625,4
1.61691E+18,-429.79523,-5.024488204,-6.896175226,2.182903865,4
1.61691E+18,-429.7852119,-4.156189121,-7.189536826,2.473923432,4
1.61691E+18,-429.7751931,-3.757810565,-7.051808855,2.441776627,4
1.61691E+18,-429.7651748,-3.704302262,-6.665919779,2.14882244,4
1.61691E+18,-429.755157,-4.142964897,-6.218571733,1.616216761,4
1.61691E+18,-429.7451379,-4.393065447,-6.136287417,1.149369649,4
1.61691E+18,-429.7351199,-4.388052588,-6.305750834,1.012651733,4
1.61691E+18,-429.7251018,-4.148519024,-6.5132374,1.166999414,4
1.61691E+18,-429.7150828,-3.539137419,-6.767595023,1.457782688,4
1.61691E+18,-429.7050647,-2.476111882,-6.960081004,1.896017891,4
1.61691E+18,-429.6950459,-0.905935279,-6.892507936,2.24703863,4
1.61691E+18,-429.6850278,1.038306106,-6.259763575,2.35173293,4
1.61691E+18,-429.67501,3.884806129,-4.373987237,2.071426042,4
1.61691E+18,-429.664991,7.995656224,-0.490929998,1.778919744,4
1.61691E+18,-429.6549727,18.6210624,7.58692111,1.972187816,4
1.61691E+18,-429.6449548,21.69077029,20.04630914,2.944727757,4
1.61691E+18,-429.6349358,7.316261756,27.19940278,2.672949628,4
1.61691E+18,-429.624918,3.307221345,25.39190678,-0.422396268,4
1.61691E+18,-429.6149001,6.016918695,15.01591259,-3.853149008,4
1.61691E+18,-429.6048809,3.488979595,3.837295605,-3.074692692,4
1.61691E+18,-429.5948628,1.371599319,-1.922673697,-0.634401188,4
1.61691E+18,-429.5848438,0.943681365,-5.184492304,1.081170558,4
1.61691E+18,-429.5748259,1.717899312,-7.027008176,2.532233874,4
1.61691E+18,-429.5648081,0.883297916,-6.609541473,3.963502356,4
1.61691E+18,-429.5547888,-1.32388129,-4.659341472,4.767941839,4
1.61691E+18,-429.5447712,-2.061335149,-2.398452303,5.01923686,4
1.61691E+18,-429.5347529,-2.659628374,0.255506208,5.499975719,4
1.61691E+18,-429.5247336,-3.007538141,3.628886663,7.038330365,4
1.61691E+18,-429.5147161,-4.129039248,5.395698183,7.8899092,4
1.61691E+18,-429.504698,-5.398344898,4.430722101,6.498730736,4
1.61691E+18,-429.4946792,-6.293060864,2.39048527,3.331924701,4
1.61691E+18,-429.4846609,-6.255956584,-0.488884172,0.643110272,4
1.61691E+18,-429.4746421,-5.410789369,-3.396139399,-0.745557086,4
1.61691E+18,-429.464624,-3.627658583,-5.610441588,-1.714535681,4
1.61691E+18,-429.454606,-1.780441986,-6.996324284,-2.302725738,4
1.61691E+18,-429.4445872,-0.509008676,-7.358294725,-2.612305774,4
1.61691E+18,-429.4345691,-0.342831441,-6.721829882,-2.766927012,4
1.61691E+18,-429.4245508,-1.562186188,-4.954970432,-2.710093656,4
1.61691E+18,-429.414532,-3.923064255,-1.885524993,-2.524875328,4
1.61691E+18,-429.4045139,-6.121214936,2.093606602,-2.365854394,4
1.61691E+18,-429.3944949,-7.297829442,6.601508389,-2.212671958,4
1.61691E+18,-429.3844771,-5.600227068,10.34091236,-2.32496212,4
1.61691E+18,-429.374459,-1.74397951,10.29877184,-3.17236893,4
1.61691E+18,-429.3644402,1.313655664,7.200092122,-3.806338741,4
1.61691E+18,-429.3544219,3.286836728,4.151089752,-3.713778823,4
1.61691E+18,-429.3444041,3.688884913,1.886012484,-3.910790465,4
1.61691E+18,-429.334385,3.568846328,-0.278884746,-3.783879657,4
1.61691E+18,-429.3243669,3.097478524,-1.74918117,-2.925515691,4
1.61691E+18,-429.3143491,2.341754849,-2.170865783,-1.461830794,4
1.61691E+18,-429.3043301,1.393764389,-2.152512965,-0.141538468,4
1.61691E+18,-429.294312,0.591925444,-2.149736486,0.819768569,4
1.61691E+18,-429.284293,0.007203063,-2.277328262,1.506703955,4
1.61691E+18,-429.2742749,-0.380318583,-2.334424945,2.025481745,4
1.61691E+18,-429.2642571,-0.384473365,-2.050948195,2.480145083,4
1.61691E+18,-429.254238,-0.255083015,-1.733361085,2.845771123,4
1.61691E+18,-429.2442197,-0.11474983,-1.747442218,2.950602786,4
1.61691E+18,-429.2342019,0.150540106,-2.010144475,2.603095463,4
1.61691E+18,-429.2241829,0.383346991,-2.265451362,1.74688663,4
1.61691E+18,-429.214165,0.516649546,-2.049507933,1.031427453,4
1.61691E+18,-429.204147,0.508101498,-1.791967588,0.506392356,4
1.61691E+18,-429.1941279,0.523679006,-1.66880415,-0.017922902,4
1.61691E+18,-429.1841099,0.525558244,-1.550907838,-0.468830979,4
1.61691E+18,-429.1740908,0.637177375,-1.441224059,-0.805426156,4
1.61691E+18,-429.164073,0.84570439,-1.341032916,-1.028182772,4
1.61691E+18,-429.1540549,1.049284012,-1.163819907,-1.178865208,4
1.61691E+18,-429.1440359,1.246987435,-0.734734078,-1.267936115,4
1.61691E+18,-429.1340181,1.46196991,-0.036015901,-1.26859078,4
1.61691E+18,-429.1239998,1.639112776,0.883840936,-1.221284839,4
1.61691E+18,-429.1139807,1.836035278,1.670622597,-1.257583648,4
1.61691E+18,-429.1039629,2.007666687,2.068446442,-1.474673032,4
1.61691E+18,-429.0939438,2.076340995,2.157459189,-1.803316665,4
1.61691E+18,-429.083926,2.028219646,2.155858768,-2.113618878,4
1.61691E+18,-429.073908,1.932369746,2.231419328,-2.407856676,4
1.61691E+18,-429.0638889,1.685644225,2.646972306,-2.735465413,4
1.61691E+18,-429.0538708,1.214056641,3.465609826,-3.003099574,4
1.61691E+18,-429.0438528,0.802116008,4.482237184,-3.127915456,4
1.61691E+18,-429.033834,0.814977828,5.295735003,-3.165460758,4
1.61691E+18,-429.0238159,1.36440327,5.466822806,-3.189723677,4
1.61691E+18,-429.0137979,2.276044652,5.065444484,-2.907194437,4
1.61691E+18,-429.0037788,3.12875103,4.220946547,-2.198832525,4
1.61691E+18,-428.9937607,3.678150753,3.448559907,-1.584328462,4
1.61691E+18,-428.9837419,4.068136159,3.324145007,-0.93833299,4
1.61691E+18,-428.9737234,4.585861225,2.788627679,-0.206260239,4
1.61691E+18,-428.9637053,5.216254054,2.308081712,0.520351908,4
1.61691E+18,-428.9536865,5.853240875,2.151628583,1.007404188,4
1.61691E+18,-428.9436685,6.596676731,2.322946688,1.008449897,4
1.61691E+18,-428.9336504,7.082333757,2.774880893,0.380650007,4
1.61691E+18,-428.9236313,6.332112771,3.046096712,-0.625113428,4
1.61691E+18,-428.9136133,4.517808848,2.7471389,-1.371810331,4
1.61691E+18,-428.9035957,3.0523283,1.873163524,-1.489527487,4
1.61691E+18,-428.8935764,1.906711573,0.979177041,-1.474537715,4
1.61691E+18,-428.8835581,0.981385365,0.284086406,-1.317237614,4
1.61691E+18,-428.8735393,-0.082626261,-0.040011108,-0.7044462,4
1.61691E+18,-428.8635212,-1.038406644,0.261956992,-0.098654435,4
1.61691E+18,-428.8535037,-0.819904178,1.236568333,0.260123055,4
1.61691E+18,-428.8434844,0.104327805,2.485267832,1.266378949,4
1.61691E+18,-428.8334666,0.690378804,4.208208062,2.962615003,4
1.61691E+18,-428.8234485,0.099263507,6.37202568,5.468405692,4
1.61691E+18,-428.8134292,-2.02905785,7.982526109,7.866727062,4
1.61691E+18,-428.8034116,-4.296352794,7.410448106,8.243766477,4
1.61691E+18,-428.7933923,-4.345078538,4.111294332,5.960566108,4
1.61691E+18,-428.7833745,-4.36834134,0.734839292,2.959543633,4
1.61691E+18,-428.7733567,-5.596537566,0.027130584,0.946875192,4
1.61691E+18,-428.7633376,-5.665863031,0.440474653,-0.848895003,4
1.61691E+18,-428.7533196,-3.262500744,0.806939483,-2.68670752,4
1.61691E+18,-428.7433015,0.419762705,1.403889477,-4.077680817,4
1.61691E+18,-428.7332825,0.943444049,1.920484662,-4.650686164,4
1.61691E+18,-428.7232646,-1.158242984,2.300888001,-4.109107636,4
1.61691E+18,-428.7132466,-3.983032694,2.172842051,-3.003772359,4
1.61691E+18,-428.7032275,-6.685840869,0.586589928,-1.651619791,4
1.61691E+18,-428.6932095,-7.887474082,-1.329964409,-0.910314517,4
1.61691E+18,-428.6831904,-7.538403455,-2.367059386,-0.632475335,4
1.61691E+18,-428.6731726,-7.145380288,-3.345995604,-0.371072908,4
1.61691E+18,-428.6631545,-6.615777737,-4.223820057,0.038200697,4
1.61691E+18,-428.6531355,-6.187541803,-5.168714889,0.588290448,4
1.61691E+18,-428.6431174,-5.789958197,-6.041193889,1.122560991,4
1.61691E+18,-428.6330994,-5.260585948,-6.457907727,1.580894542,4
1.61691E+18,-428.6230806,-4.72385223,-6.422593837,1.853181059,4
1.61691E+18,-428.6130625,-4.331152889,-6.190775963,1.968837921,4
1.61691E+18,-428.6030435,-4.006836764,-6.131829269,1.840435851,4
1.61691E+18,-428.5930256,-4.053333142,-6.364852427,1.363553667,4
1.61691E+18,-428.5830073,-4.117662114,-6.670265114,0.642755175,4
1.61691E+18,-428.5729883,-3.984262528,-6.852675691,0.048608548,4
1.61691E+18,-428.5629705,-3.448333112,-6.985455684,-0.101197252,4
1.61691E+18,-428.5529524,-2.650049229,-7.187272972,0.120763684,4
1.61691E+18,-428.5429336,-1.622408309,-7.487078926,0.496263322,4
1.61691E+18,-428.5329155,-0.279983647,-7.703355532,1.020823641,4
1.61691E+18,-428.5228965,1.037762501,-7.431288065,1.847462535,4
1.61691E+18,-428.5128784,1.679555845,-6.243913679,2.603191032,4
1.61691E+18,-428.5028604,3.188074741,-3.371585388,2.750819926,4
1.61691E+18,-428.4928416,8.142485785,1.472455064,2.535079034,4
1.61691E+18,-428.4828235,16.60833025,10.07886301,2.640978034,4
1.61691E+18,-428.4728054,11.72372047,22.23037518,3.44734527,4
1.61691E+18,-428.4627864,6.001272213,30.39096712,1.212102,4
1.61691E+18,-428.4527683,9.235296219,23.31957093,-4.041522585,4
1.61691E+18,-428.4427505,7.609886975,8.923883415,-4.652781382,4
1.61691E+18,-428.4327314,3.795364927,1.223110885,-1.809493893,4
1.61691E+18,-428.4227134,2.347409514,-2.772996395,-0.122183341,4
1.61691E+18,-428.4126946,0.700336719,-6.005055823,0.792132374,4
1.61691E+18,-428.4026763,-0.692324093,-8.79036634,1.437885562,4
1.61691E+18,-428.3926584,-0.596019435,-9.618984571,2.471884035,4
1.61691E+18,-428.3826394,-1.631876395,-6.636824617,4.249216656,4
1.61691E+18,-428.3726213,-2.299572242,-1.585323318,5.856893553,4
1.61691E+18,-428.3626035,-2.415950551,2.847759667,7.207837621,4
1.61691E+18,-428.3525845,-3.19071678,6.887876184,8.999354543,4
1.61691E+18,-428.3425664,-4.263196374,8.92981222,10.12818614,4
1.61691E+18,-428.3325474,-6.155744982,8.447748835,8.213205919,4
1.61691E+18,-428.3225293,-5.640742618,3.710128192,2.701787015,4
1.61691E+18,-428.3125115,-4.177942687,-1.828991789,-0.116347036,4
1.61691E+18,-428.3024924,-3.057736881,-5.490439829,-1.211156243,4
1.61691E+18,-428.2924744,-1.700015281,-7.873143359,-1.973347361,4
1.61691E+18,-428.2824563,-0.883691883,-8.906295151,-2.403036709,4
1.61691E+18,-428.2724373,-0.925707317,-8.658824365,-2.700063845,4
1.61691E+18,-428.2624194,-1.792918021,-7.756372252,-2.94129749,4
1.61691E+18,-428.2524004,-3.533142562,-6.185702313,-3.10407953,4
1.61691E+18,-428.2423823,-6.45616819,-3.459947562,-3.214781838,4
1.61691E+18,-428.2323643,-9.791308638,1.245060267,-2.986252484,4
1.61691E+18,-428.2223455,-11.75969078,7.293936527,-2.725482948,4
1.61691E+18,-428.2123274,-11.05726615,12.08463936,-2.40490484,4
1.61691E+18,-428.2023093,-7.087974394,13.20890876,-2.520085756,4
1.61691E+18,-428.1922903,2.285924825,9.913049351,-3.531381982,4
1.61691E+18,-428.1822725,6.336053618,5.193191743,-4.179053863,4
1.61691E+18,-428.1722542,6.694879916,1.804603198,-3.608289865,4
1.61691E+18,-428.1622354,6.779906808,-0.476051578,-2.565400523,4
1.61691E+18,-428.1522175,5.372893646,-1.589136154,-1.897791769,4
1.61691E+18,-428.1421982,3.742721717,-2.753046078,-1.223753275,4
1.61691E+18,-428.1321807,2.405933599,-3.975249201,-0.549348869,4
1.61691E+18,-428.1221626,1.517126565,-4.47418598,0.089085812,4
1.61691E+18,-428.1121433,0.707837304,-3.886441036,0.834315273,4
1.61691E+18,-428.1021255,-0.386409301,-2.229868007,1.973779615,4
1.61691E+18,-428.0921074,-1.633944433,-0.313620544,3.01329422,4
1.61691E+18,-428.0820886,-1.776464899,0.615194091,3.521633034,4
1.61691E+18,-428.0720706,-0.409434203,0.133848498,3.421720415,4
1.61691E+18,-428.0620515,1.614380486,-0.915828897,2.938319643,4
1.61691E+18,-428.0520337,3.261746711,-1.750906094,2.574825062,4
1.61691E+18,-428.0420154,4.106288487,-1.990749454,2.467692136,4
1.61691E+18,-428.0319966,3.89945717,-1.966843678,2.130901145,4
1.61691E+18,-428.0219785,2.925853545,-1.938569185,1.416134334,4
1.61691E+18,-428.0119607,1.868344141,-1.585040409,0.57377224,4
1.61691E+18,-428.0019417,1.080158458,-1.162958322,-0.309414324,4
1.61691E+18,-427.9919233,0.706530897,-0.918311946,-0.951707143,4
1.61691E+18,-427.9819045,0.569846883,-0.679525401,-1.21712655,4
1.61691E+18,-427.9718862,0.412729737,-0.011145079,-1.34473557,4
1.61691E+18,-427.9618684,0.272348038,0.882663709,-1.45699446,4
1.61691E+18,-427.9518494,0.241686357,1.582892292,-1.477714592,4
1.61691E+18,-427.9418313,0.454786087,1.876688191,-1.457146435,4
1.61691E+18,-427.9318132,0.950507411,1.612684203,-1.393605399,4
1.61691E+18,-427.9217942,1.478937412,1.486130538,-1.363031689,4
1.61691E+18,-427.9117764,1.483570332,1.898055973,-1.632032462,4
1.61691E+18,-427.9017583,0.640294046,2.359443651,-2.347353692,4
1.61691E+18,-427.8917393,-0.100772743,2.386642623,-3.389560021,4
1.61691E+18,-427.8817214,0.129008657,2.733392114,-4.564956384,4
1.61691E+18,-427.8717024,0.923839185,4.36162343,-5.85707417,4
1.61691E+18,-427.8616843,1.891342155,6.466253531,-6.976213808,4
1.61691E+18,-427.8516663,2.99166428,7.53056677,-7.873328068,4
1.61691E+18,-427.8416472,4.27853832,6.66813687,-8.409520519,4
1.61691E+18,-427.8316294,5.243164273,4.91201801,-7.708133414,4
1.61691E+18,-427.8216113,5.759664181,4.09921168,-5.534226364,4
1.61691E+18,-427.8115925,6.622298079,3.261381969,-3.881688581,4
1.61691E+18,-427.8015742,7.625106756,2.584264798,-1.864818889,4
1.61691E+18,-427.7915552,8.498276076,2.515830729,0.837598241,4
1.61691E+18,-427.7815374,8.155352281,1.877388448,3.328668914,4
1.61691E+18,-427.7715193,6.518258443,0.477765981,4.704311955,4
1.61691E+18,-427.7615002,3.852630537,-1.274454703,4.421662012,4
1.61691E+18,-427.7514824,0.724681471,-2.324011103,2.582807292,4
1.61691E+18,-427.7414641,-1.48539404,-0.828112035,0.387392175,4
1.61691E+18,-427.7314453,-1.627119556,1.13956634,-1.127430789,4
1.61691E+18,-427.7214272,-0.92122871,3.057679598,-2.229116604,4
1.61691E+18,-427.7114082,-0.894953282,4.536553296,-2.867844131,4
1.61691E+18,-427.7013904,-0.376090736,4.36410531,-2.634221253,4
1.61691E+18,-427.6913721,1.101206507,3.160226364,-1.817714901,4
1.61691E+18,-427.6813533,2.087265709,2.726603477,-0.362519015,4
1.61691E+18,-427.6713352,2.573856801,2.925228106,1.392481071,4
1.61691E+18,-427.6613171,2.665048061,3.919197059,3.891771876,4
1.61691E+18,-427.6512983,1.08041857,5.919573588,7.417800222,4
1.61691E+18,-427.6412803,-1.906062754,7.875891781,10.45897994,4
1.61691E+18,-427.6312612,-3.309387583,7.553081968,12.11268238,4
1.61691E+18,-427.6212432,-2.792499552,3.282508344,10.375979,4
1.61691E+18,-427.6112251,-3.003232553,-1.330060855,6.591908202,4
1.61691E+18,-427.6012063,-4.646834457,-2.449914195,3.286377294,4
1.61691E+18,-427.5911882,-4.646780681,-2.240557159,0.709917325,4
1.61691E+18,-427.5811704,-4.103377568,-2.186491807,-1.1104817,4
1.61691E+18,-427.5711514,-4.503972631,-2.011634421,-2.858886918,4
1.61691E+18,-427.5611331,-4.632316102,-1.55429222,-4.774688099,4
1.61691E+18,-427.5511143,-4.704884495,0.633533466,-6.073571725,4
1.61691E+18,-427.5410962,-2.545695705,2.926965306,-6.712220927,4
1.61691E+18,-427.5310784,-2.49344997,2.968590863,-5.98047434,4
1.61691E+18,-427.5210593,-5.819280153,0.589575081,-3.812706523,4
1.61691E+18,-427.5110413,-7.720600097,-1.509603183,-1.953517748,4
1.61691E+18,-427.5010232,-7.855252897,-2.612092716,-0.408825423,4
1.61691E+18,-427.4910042,-7.101514259,-3.376262732,1.091872277,4
1.61691E+18,-427.4809861,-6.528159075,-4.271913933,2.31037333,4
1.61691E+18,-427.4709685,-6.028174248,-5.531310184,3.119400725,4
1.61691E+18,-427.4609492,-5.410018969,-6.789613378,3.379690953,4
1.61691E+18,-427.4509312,-4.737954405,-7.601477458,3.144855485,4
1.61691E+18,-427.4409121,-4.046606464,-7.965422414,2.666471956,4
1.61691E+18,-427.430894,-3.702893564,-7.929725078,1.98328964,4
1.61691E+18,-427.4208765,-3.519700897,-7.706241901,1.112897968,4
1.61691E+18,-427.4108572,-3.177300833,-7.362670456,0.332405908,4
1.61691E+18,-427.4008396,-2.87056245,-7.27353379,-0.129357178,4
1.61691E+18,-427.3908203,-2.488496731,-7.363959911,-0.224029705,4
1.61691E+18,-427.380802,-2.031372557,-7.390076349,-0.140308927,4
1.61691E+18,-427.3707844,-1.212813948,-7.362119252,0.198163588,4
1.61691E+18,-427.3607651,0.412986927,-7.067620757,0.869641877,4
1.61691E+18,-427.3507473,3.625491176,-5.790985787,1.49575586,4
1.61691E+18,-427.3407295,7.895024936,-3.203371679,1.966319362,4
1.61691E+18,-427.3307104,15.64070453,2.051630332,2.56959739,4
1.61691E+18,-427.3206924,22.52052483,12.60896017,5.621989403,4
1.61691E+18,-427.3106731,12.96289168,25.68367673,7.147372924,4
1.61691E+18,-427.3006553,6.124833126,29.14713259,5.133058469,4
1.61691E+18,-427.2906375,6.589838994,16.53293043,2.255479418,4
1.61691E+18,-427.2806184,4.243642948,4.066389023,0.249778771,4
1.61691E+18,-427.2706003,2.118225495,-1.034984268,0.381201796,4
1.61691E+18,-427.2605823,1.018600704,-4.086297254,1.461009541,4
1.61691E+18,-427.2505632,0.619067133,-5.784556631,2.912834197,4
1.61691E+18,-427.2405454,0.758650961,-5.728395767,4.957732297,4
1.61691E+18,-427.2305264,-1.070659393,-4.070008382,6.302297479,4
1.61691E+18,-427.2205085,-2.369714869,-1.943806501,6.146980661,4
1.61691E+18,-427.2104902,-1.364206286,1.47749715,5.759267876,4
1.61691E+18,-427.2004712,1.008695397,6.553935321,5.876529981,4
1.61691E+18,-427.1904534,1.094636481,10.64404307,4.788564064,4
1.61691E+18,-427.1804353,-3.078513127,8.718619785,1.259738196,4
1.61691E+18,-427.1704163,-8.59119869,1.422877086,-0.871074394,4
1.61691E+18,-427.1603984,-9.129684804,-3.652387366,-1.297266839,4
1.61691E+18,-427.1503801,-8.04517575,-6.699921417,-1.727044157,4
1.61691E+18,-427.1403613,-7.128422139,-8.704158129,-2.287601234,4
1.61691E+18,-427.1303433,-6.456614765,-9.470088726,-2.689596811,4
1.61691E+18,-427.1203242,-5.870478426,-9.163783473,-2.775238621,4
1.61691E+18,-427.1103064,-5.468232673,-8.284333465,-2.530318688,4
1.61691E+18,-427.1002883,-5.297588522,-6.698029904,-2.023454623,4
1.61691E+18,-427.0902695,-5.1411389,-4.583104035,-1.293304658,4
1.61691E+18,-427.0802512,-5.396437018,-1.316596978,-0.353758493,4
1.61691E+18,-427.0702322,-7.199157471,4.237572103,0.665924162,4
1.61691E+18,-427.0602144,-8.914074553,10.08848191,1.330211077,4
1.61691E+18,-427.0501963,-9.131882607,12.87128775,1.375216925,4
1.61691E+18,-427.0401772,-6.27558249,10.88073703,0.660000325,4
1.61691E+18,-427.0301592,-2.8916029,6.093758773,-0.498795617,4
1.61691E+18,-427.0201411,0.219941559,1.660776911,-1.467296658,4
1.61691E+18,-427.0101223,1.633524747,-0.932285526,-1.554469038,4
1.61691E+18,-427.0001042,2.230180142,-0.989330771,-0.797799899,4
1.61691E+18,-426.9900864,2.309934062,-1.142290212,-0.478545441,4
1.61691E+18,-426.9800674,2.184392204,-2.113656288,-0.39991731,4
1.61691E+18,-426.9700491,1.915233902,-3.36846521,-0.560494241,4
1.61691E+18,-426.96003,1.638646327,-4.505862974,-0.921758287,4
1.61691E+18,-426.950012,1.643748035,-4.453827082,-0.994308559,4
1.61691E+18,-426.9399939,1.932835025,-2.452250529,-0.651271075,4
1.61691E+18,-426.9299749,1.780650075,-0.24743513,-0.132449153,4
1.61691E+18,-426.919957,1.584441275,0.810578716,-0.085412092,4
1.61691E+18,-426.9099387,1.629147262,1.178302022,-0.425173039,4
1.61691E+18,-426.8999199,1.929264181,1.261209437,-0.602345716,4
1.61691E+18,-426.8899019,2.496280225,1.053937391,-0.610649434,4
1.61691E+18,-426.8798828,3.245600463,0.618662644,-0.637541824,4
1.61691E+18,-426.869865,3.960714479,0.291831321,-0.667779142,4
1.61691E+18,-426.8598469,4.258321461,0.332360316,-0.769904761,4
