time,seconds_elapsed,z,y,x,label
1.61696E+18,-73.64569995,-0.080116908,0.262152222,0.117326695,2
1.61696E+18,-73.63576685,-0.163136552,0.163005619,0.142754859,2
1.61696E+18,-73.62583472,-0.205179897,-0.018545126,0.066160316,2
1.61696E+18,-73.61590186,-0.284539411,-0.408612365,0.025089725,2
1.61696E+18,-73.60596973,-0.006456921,-0.613115531,-0.150772709,2
1.61696E+18,-73.59603662,0.307541516,-0.422292515,-0.346666489,2
1.61696E+18,-73.58610474,0.287751943,-0.267313551,-0.411982426,2
1.61696E+18,-73.57617261,0.220966956,-0.301419234,-0.514957319,2
1.61696E+18,-73.56623975,-0.672100512,0.169670338,-0.261343207,2
1.61696E+18,-73.55630786,-1.927835318,0.3237053,0.241993268,2
1.61696E+18,-73.54637476,-1.659982399,-0.09175357,0.501218789,2
1.61696E+18,-73.53644287,-0.23954803,-0.526452563,0.55176415,2
1.61696E+18,-73.52651001,0.954402665,-0.705620797,0.591933627,2
1.61696E+18,-73.51657788,1.621340972,-0.476032289,0.679740506,2
1.61696E+18,-73.50664478,1.396931182,-0.198777775,0.699489454,2
1.61696E+18,-73.49671265,0.327184959,0.032161563,0.601972206,2
1.61696E+18,-73.48677979,-0.242498258,0.178657947,0.329350905,2
1.61696E+18,-73.47684766,-0.117112468,0.005559972,0.049065644,2
1.61696E+18,-73.46691553,-0.100901338,-0.033073418,-0.070619304,2
1.61696E+18,-73.45698291,-0.035125089,-0.230958627,-0.148180391,2
1.61696E+18,-73.44705078,-0.188587658,-0.584259439,-0.357923138,2
1.61696E+18,-73.43711768,-0.246826204,-0.336641354,-0.394635935,2
1.61696E+18,-73.42718604,-0.129424252,0.000955109,-0.278368029,2
1.61696E+18,-73.41725293,0.438344656,2.080907864,-0.253482009,2
1.61696E+18,-73.4073208,-0.200734608,1.068642792,0.406732908,2
1.61696E+18,-73.39738794,-1.390835204,-0.518443444,0.889615793,2
1.61696E+18,-73.38745581,0.245194073,0.208982942,0.148728672,2
1.61696E+18,-73.37752271,0.248643337,0.000172434,0.050679509,2
1.61696E+18,-73.36759082,-0.215489401,-0.255040929,0.005168854,2
1.61696E+18,-73.35765869,-0.422970999,-0.710360685,0.05675218,2
1.61696E+18,-73.34772559,-0.221767459,-0.759725312,0.128537898,2
1.61696E+18,-73.3377937,-0.023203181,-0.365817179,0.15213965,2
1.61696E+18,-73.32786084,0.129644763,-0.037694648,-0.072195979,2
1.61696E+18,-73.31792871,0.134558254,0.269157717,-0.446624627,2
1.61696E+18,-73.30799561,0.087073157,0.36723523,-0.663665642,2
1.61696E+18,-73.29806396,0.124050743,0.294839855,-0.695321229,2
1.61696E+18,-73.28813086,0.178265294,0.170495098,-0.668771002,2
1.61696E+18,-73.27819873,0.270681566,-0.009722353,-0.645396045,2
1.61696E+18,-73.26826587,0.430428914,-0.232951262,-0.688968426,2
1.61696E+18,-73.25833374,0.468326098,-0.357128846,-0.765598515,2
1.61696E+18,-73.24840161,0.516598254,-0.374706004,-0.852906211,2
1.61696E+18,-73.23846875,0.584026215,-0.238793559,-0.892495075,2
1.61696E+18,-73.22853662,0.655017714,0.135535429,-0.83131748,2
1.61696E+18,-73.21860376,0.728555244,0.935684521,-0.645848977,2
1.61696E+18,-73.20867188,1.465269098,1.15335755,-1.020326432,2
1.61696E+18,-73.19873877,0.567262127,1.52548289,-0.955975029,2
1.61696E+18,-73.18880688,-1.26925655,0.419782578,0.532441282,2
1.61696E+18,-73.17887402,-0.730506962,-0.734284581,0.738732427,2
1.61696E+18,-73.16894189,0.058940849,-1.821578883,0.069782854,2
1.61696E+18,-73.15900977,0.107236532,-1.369662798,-0.111893235,2
1.61696E+18,-73.14907788,0.068174542,-0.539805965,0.082829382,2
1.61696E+18,-73.13914575,-0.145602065,0.058155252,0.158160517,2
1.61696E+18,-73.12921265,-0.440886011,0.231190682,0.004236067,2
1.61696E+18,-73.11928101,-0.521647208,0.400989031,0.047256841,2
1.61696E+18,-73.1093479,-0.544157584,0.456675262,0.203882148,2
1.61696E+18,-73.09941577,-0.615233839,0.314529475,0.32243338,2
1.61696E+18,-73.08948291,-0.676356124,0.05259528,0.383712609,2
1.61696E+18,-73.07955078,-0.659635729,-0.218320095,0.396577973,2
1.61696E+18,-73.06961792,-0.654548197,-0.371806191,0.360137088,2
1.61696E+18,-73.05968604,-0.611328648,-0.393088633,0.335777723,2
1.61696E+18,-73.04975293,-0.553450825,-0.315864523,0.327964821,2
1.61696E+18,-73.0398208,-0.447854681,-0.165546536,0.358230451,2
1.61696E+18,-73.02988892,-0.338463747,-0.055028644,0.402376174,2
1.61696E+18,-73.01995581,-0.254178029,0.02666472,0.400641313,2
1.61696E+18,-73.01002368,-0.162355631,0.068587799,0.398445776,2
1.61696E+18,-73.00009058,0.037777723,0.104039051,0.307602927,2
1.61696E+18,-72.99015894,0.254005448,0.137603467,0.144069594,2
1.61696E+18,-72.98022583,0.526607461,0.133089789,-0.007620704,2
1.61696E+18,-72.97029395,0.804916891,0.057025371,-0.121832263,2
1.61696E+18,-72.96036084,1.032068673,-0.052104281,-0.251158535,2
1.61696E+18,-72.95042871,1.250081456,-0.10621055,-0.440521634,2
1.61696E+18,-72.94049585,1.415278302,-0.101961076,-0.676033468,2
1.61696E+18,-72.93056396,1.378730048,0.048096799,-0.958480217,2
1.61696E+18,-72.92063184,1.412497293,0.251263749,-1.1468649,2
1.61696E+18,-72.91069873,1.428266524,0.451442037,-1.180022489,2
1.61696E+18,-72.90076685,1.400649472,0.639420186,-1.223221944,2
1.61696E+18,-72.89083374,1.562356869,0.655738868,-1.245226271,2
1.61696E+18,-72.88090186,1.531674145,0.624281069,-1.34862907,2
1.61696E+18,-72.87096899,1.303449912,0.636020606,-1.528375396,2
1.61696E+18,-72.86103687,1.208153043,0.564883708,-1.659713665,2
1.61696E+18,-72.85110376,1.346594641,0.393563849,-1.674436603,2
1.61696E+18,-72.84117188,1.60420396,0.082505265,-1.513453429,2
1.61696E+18,-72.83123901,1.567640946,-0.252843127,-1.13735977,2
1.61696E+18,-72.82130688,1.122116024,-0.463911058,-0.649120326,2
1.61696E+18,-72.811375,0.422637968,-0.766364896,0.0611255,2
1.61696E+18,-72.80144189,-0.138459646,-0.980227427,0.733280153,2
1.61696E+18,-72.79150977,-0.444902407,-0.983174002,1.148067042,2
1.61696E+18,-72.78157666,-0.896310396,-0.588581979,1.811472791,2
1.61696E+18,-72.77164478,-0.851036691,-0.316857626,2.520860247,2
1.61696E+18,-72.76171167,-0.750217917,-0.349820569,2.834868621,2
1.61696E+18,-72.75177979,-1.217284809,-0.679515465,2.556077691,2
1.61696E+18,-72.74184692,-1.404794609,-1.531470147,1.892451577,2
1.61696E+18,-72.73191479,-1.058018523,-2.710919001,1.337645904,2
1.61696E+18,-72.72198267,-0.695721042,-3.527272793,1.019440443,2
1.61696E+18,-72.7120498,-0.408889428,-3.918018078,0.61357935,2
1.61696E+18,-72.70211768,-1.022350705,-4.265353844,0.584503514,2
1.61696E+18,-72.69218481,-1.778710047,-3.883338979,1.168112928,2
1.61696E+18,-72.68225293,-2.125046573,-2.735742476,1.868838939,2
1.61696E+18,-72.67231982,-2.072228299,-1.704409716,2.673471898,2
1.61696E+18,-72.6623877,-1.553633756,-1.158989418,3.209413005,2
1.61696E+18,-72.65245483,-1.391570971,-1.155409806,3.062350804,2
1.61696E+18,-72.64252295,-1.188726385,-1.932680127,2.75032016,2
1.61696E+18,-72.63258984,-1.821885172,-3.166879393,2.285498417,2
1.61696E+18,-72.62265796,-1.966967304,-4.343458828,1.861778791,2
1.61696E+18,-72.61272583,-1.528286841,-5.22809939,1.618410472,2
1.61696E+18,-72.60279272,-1.424634159,-5.60991961,1.431759189,2
1.61696E+18,-72.59286084,-1.361548465,-5.071691854,1.069866489,2
1.61696E+18,-72.58292798,-1.695847055,-3.873976107,0.74476389,2
1.61696E+18,-72.57299585,-2.047389041,-2.515587567,0.773744777,2
1.61696E+18,-72.56306274,-1.586388901,-1.040765775,1.104402965,2
1.61696E+18,-72.55313086,-1.639690868,0.140237907,1.150376196,2
1.61696E+18,-72.54319775,-0.217557294,0.96871293,0.90382194,2
1.61696E+18,-72.53326563,1.808231325,1.618639312,0.640379386,2
1.61696E+18,-72.52333276,1.779886105,2.272761392,0.236382113,2
1.61696E+18,-72.51340088,-0.747355075,3.303572759,-1.087841706,2
1.61696E+18,-72.50346875,-4.183977876,4.52820457,-2.776844887,2
1.61696E+18,-72.49353589,-8.996170652,6.719257986,-4.182373071,2
1.61696E+18,-72.48360376,-7.894130617,10.0796112,-5.257767383,2
1.61696E+18,-72.47367065,-6.985559144,14.06532685,-5.150079747,2
1.61696E+18,-72.46373877,-9.532022912,18.45502545,-3.933098743,2
1.61696E+18,-72.45380591,-7.584281409,20.6862437,-1.372063137,2
1.61696E+18,-72.44387378,-6.092790805,20.94551891,2.785753877,2
1.61696E+18,-72.43394092,-4.296477004,20.88869169,6.654228172,2
1.61696E+18,-72.42400879,-1.732976762,20.99775646,9.225020909,2
1.61696E+18,-72.41407568,0.015058453,20.43661545,9.329182125,2
1.61696E+18,-72.40414404,0.427433532,19.80204679,7.842845251,2
1.61696E+18,-72.39421191,-0.206714267,19.6606416,5.430598231,2
1.61696E+18,-72.38427881,-3.105422761,20.47517285,0.599799538,2
1.61696E+18,-72.37434692,-6.07904285,22.12315282,-5.891074055,2
1.61696E+18,-72.36441382,-4.688844045,20.7533702,-11.28322127,2
1.61696E+18,-72.35448169,1.508204423,12.54869128,-13.69735629,2
1.61696E+18,-72.34454883,1.547621072,4.022988272,-14.35628782,2
1.61696E+18,-72.33461694,-5.174200627,-2.175827205,-14.76321559,2
1.61696E+18,-72.32468384,-3.348643488,-7.758544335,-11.25469543,2
1.61696E+18,-72.31475171,6.894592341,-12.49222062,-2.725463659,2
1.61696E+18,-72.30481982,11.70186987,-12.96513507,4.039986753,2
1.61696E+18,-72.29488672,11.05586213,-11.7684703,6.467222084,2
1.61696E+18,-72.28495483,8.521092303,-8.642221021,5.960287876,2
1.61696E+18,-72.27502197,7.338676417,-4.417663298,4.825084991,2
1.61696E+18,-72.26508984,11.90017126,-1.734096414,3.335703635,2
1.61696E+18,-72.25515674,15.36996334,0.307515213,1.60417941,2
1.61696E+18,-72.24522485,14.65472716,1.751005463,-0.471632008,2
1.61696E+18,-72.23529199,8.127847019,1.378369836,-2.397546294,2
1.61696E+18,-72.22535962,1.373843298,-1.455546599,-4.480544701,2
1.61696E+18,-72.215427,4.440460236,-3.350407283,-5.024330384,2
1.61696E+18,-72.20549487,12.03950725,-4.895817109,-2.338939207,2
1.61696E+18,-72.19556177,19.97743376,-10.45775361,3.148659845,2
1.61696E+18,-72.18562964,19.44663644,-16.20209221,8.439455054,2
1.61696E+18,-72.175698,16.27577353,-19.82624132,8.554277949,2
1.61696E+18,-72.16576489,19.89527804,-23.4921592,6.128375329,2
1.61696E+18,-72.1558291,19.99499981,-24.8319956,3.307353154,2
1.61696E+18,-72.145896,19.85087775,-24.07224808,0.070816873,2
1.61696E+18,-72.13596387,16.7886155,-21.10122151,-2.244237309,2
1.61696E+18,-72.12603125,12.9087895,-16.18967229,-3.531028054,2
1.61696E+18,-72.11609888,11.11591357,-12.31849955,-3.187013541,2
1.61696E+18,-72.10616602,9.07787746,-10.38621865,-2.290114386,2
1.61696E+18,-72.09623413,6.135172149,-9.109225369,-1.361330438,2
1.61696E+18,-72.086302,4.307016226,-7.435201439,-0.231270762,2
1.61696E+18,-72.0763689,3.645906187,-5.55330925,1.50728117,2
1.61696E+18,-72.06643726,2.856659597,-4.142960221,3.43312356,2
1.61696E+18,-72.05650415,2.022587193,-3.590429215,4.836225394,2
1.61696E+18,-72.04657202,1.456075591,-3.630653673,5.445363839,2
1.61696E+18,-72.03663916,2.156793711,-3.712295599,5.425615767,2
1.61696E+18,-72.02670703,5.197441217,-3.486888761,4.494017346,2
1.61696E+18,-72.01677393,7.745216652,-3.467916934,2.391855682,2
1.61696E+18,-72.00684204,8.520490246,-3.545961127,-0.15727146,2
1.61696E+18,-71.99690918,9.675980716,-3.139683343,-2.432128363,2
1.61696E+18,-71.98697705,10.10036757,-3.15265856,-3.651114862,2
1.61696E+18,-71.97704517,7.572172453,-3.68056249,-3.943718629,2
1.61696E+18,-71.96711206,3.176018392,-4.557970763,-3.941465881,2
1.61696E+18,-71.95718018,-0.50999228,-4.808211014,-3.877256152,2
1.61696E+18,-71.94724707,-2.480734281,-4.971021403,-2.711793738,2
1.61696E+18,-71.93731519,-3.709010294,-5.323514406,0.08284805,2
1.61696E+18,-71.92738208,-0.970811218,-4.617065341,3.823531283,2
1.61696E+18,-71.91744995,3.208829067,-3.715198334,6.065867142,2
1.61696E+18,-71.90751709,3.319706732,0.967310078,3.764749132,2
1.61696E+18,-71.89758496,-9.511798454,7.003125781,-0.675271251,2
1.61696E+18,-71.8876521,-29.44830165,12.04545301,-8.591789057,2
1.61696E+18,-71.87772021,11.45712121,9.847101253,-11.66345977,2
1.61696E+18,-71.86778784,21.15252383,14.79155438,-9.273957666,2
1.61696E+18,-71.85785498,-4.955435711,21.97967374,-9.556127425,2
1.61696E+18,-71.8479231,-22.49244674,26.39263164,-10.88540151,2
1.61696E+18,-71.83798999,-7.798809126,29.68474543,-4.844678165,2
1.61696E+18,-71.82805811,6.67065616,28.52878325,4.589813762,2
1.61696E+18,-71.818125,0.605889087,19.34499627,9.23149975,2
1.61696E+18,-71.80819312,-10.56032083,17.89773994,7.203277766,2
1.61696E+18,-71.79826001,-8.606054898,17.82471562,1.051336268,2
1.61696E+18,-71.78832788,-4.163987227,14.00817464,-2.600242996,2
1.61696E+18,-71.77839502,-3.10733707,11.25394023,-4.673717787,2
1.61696E+18,-71.76846289,-3.834461258,9.120569186,-6.007061318,2
1.61696E+18,-71.75853076,-2.583740482,4.944078451,-6.157696116,2
1.61696E+18,-71.74859814,-0.244027952,0.708995242,-5.46824261,2
1.61696E+18,-71.73866602,0.616947072,-0.987725674,-4.387005124,2
1.61696E+18,-71.72873291,0.261968098,-0.849981337,-2.63823195,2
1.61696E+18,-71.71880127,0.731015935,0.70900284,-1.316167939,2
1.61696E+18,-71.70886816,1.444356512,3.442345854,-0.860111686,2
1.61696E+18,-71.69893604,1.045543949,5.909620934,0.316870632,2
1.61696E+18,-71.68900317,1.013096846,7.491463424,2.035151783,2
1.61696E+18,-71.67907104,1.270709672,7.468791574,3.443574227,2
1.61696E+18,-71.66913892,1.447444541,5.955438098,3.632752106,2
1.61696E+18,-71.65920605,1.247145256,3.802304371,2.965911415,2
1.61696E+18,-71.64927393,0.30705344,1.706858863,2.078328954,2
1.61696E+18,-71.63934106,-0.410394865,-0.104500823,1.102992367,2
1.61696E+18,-71.62940894,-0.357153981,-1.601166199,0.243978852,2
1.61696E+18,-71.61947607,0.34846857,-3.069431995,-0.205633632,2
1.61696E+18,-71.60954395,1.535927127,-4.752918165,-0.243280641,2
1.61696E+18,-71.59961084,2.002677208,-6.434506394,-0.078139763,2
1.61696E+18,-71.5896792,1.29968296,-7.83464324,0.142856638,2
1.61696E+18,-71.57974609,0.674568656,-8.832945253,0.253887375,2
1.61696E+18,-71.56981396,0.433987922,-9.451556459,0.465136655,2
1.61696E+18,-71.55988208,0.179299459,-9.087032827,0.753203655,2
1.61696E+18,-71.54994897,-0.006543138,-7.452776843,0.687445381,2
1.61696E+18,-71.54001685,-1.269442136,-5.290767151,0.760443251,2
1.61696E+18,-71.53008398,-2.225215213,-3.39429874,1.251765317,2
1.61696E+18,-71.52015186,-1.333500182,-2.152372679,1.699722435,2
1.61696E+18,-71.51021899,-0.199607796,-1.388890061,1.639545614,2
1.61696E+18,-71.50028711,-0.397469917,-1.146318153,1.115429824,2
1.61696E+18,-71.490354,-1.668054793,-1.569548826,0.218653272,2
1.61696E+18,-71.48042212,-3.525428042,-2.617534615,-0.694734369,2
1.61696E+18,-71.47049023,-5.729660088,-3.529593345,-1.285935298,2
1.61696E+18,-71.46055713,-6.419501717,-4.485203633,-1.15763625,2
1.61696E+18,-71.450625,-4.309342039,-5.558239692,0.22789924,2
1.61696E+18,-71.44069214,-1.738885986,-6.511315492,2.783264983,2
1.61696E+18,-71.43076001,0.318887086,-6.947535411,5.280604654,2
1.61696E+18,-71.4208269,1.282040044,-5.820391914,6.715626936,2
1.61696E+18,-71.41089502,0.319497327,-4.437717075,7.06532417,2
1.61696E+18,-71.40096216,-2.753806541,-4.033399776,5.890200194,2
1.61696E+18,-71.39103003,-2.9168031,-4.442185744,3.010347061,2
1.61696E+18,-71.38109692,-6.272118614,-4.334118168,1.171262917,2
1.61696E+18,-71.37116504,-9.459780098,-2.192905181,-0.151628485,2
1.61696E+18,-71.36123315,-3.418873209,-0.615092385,-1.831739042,2
1.61696E+18,-71.35130005,-5.391327128,2.829053797,-4.62153255,2
1.61696E+18,-71.34136816,-8.624418822,12.04370178,-9.952530297,2
1.61696E+18,-71.33143506,-6.595336422,23.70665769,-13.2134388,2
1.61696E+18,-71.32150293,-5.699446152,27.92173155,-9.069725718,2
1.61696E+18,-71.31157007,-3.472159393,22.5169008,0.127120359,2
1.61696E+18,-71.30163794,-2.432206689,20.97067673,4.938771576,2
1.61696E+18,-71.29170483,-1.044367014,20.76106251,5.00852725,2
1.61696E+18,-71.28177295,2.124426688,18.5639137,4.405664817,2
1.61696E+18,-71.27184082,2.409914924,17.09795969,4.222765579,2
1.61696E+18,-71.26190796,-1.324129127,18.24576545,3.287253492,2
1.61696E+18,-71.25197632,-7.279238139,21.1339828,0.523677837,2
1.61696E+18,-71.24204321,-9.207322171,24.58434069,-5.186088049,2
1.61696E+18,-71.23211108,-6.519478925,24.88767482,-11.8683873,2
1.61696E+18,-71.22217822,-4.341336429,17.51489097,-13.76165955,2
1.61696E+18,-71.21224609,-7.845230685,7.814479573,-12.77040628,2
1.61696E+18,-71.20231299,-11.34855679,1.585032811,-11.04459722,2
1.61696E+18,-71.1923811,-6.807058434,-4.485227014,-4.740366142,2
1.61696E+18,-71.182448,4.103957414,-8.076884309,4.45943177,2
1.61696E+18,-71.17251587,7.714830281,-10.94742513,9.355546401,2
1.61696E+18,-71.16258765,2.843029131,-12.70991762,9.32681715,2
1.61696E+18,-71.15265454,5.306867222,-11.63067628,6.309723245,2
1.61696E+18,-71.14272266,13.68564014,-8.52973972,2.191091994,2
1.61696E+18,-71.13278979,24.11182021,-7.163121112,2.293333494,2
1.61696E+18,-71.12285791,28.03620899,-7.281178752,2.277620815,2
1.61696E+18,-71.1129248,18.3088073,-4.62987397,-0.627970863,2
1.61696E+18,-71.10299268,6.532777967,-4.268505586,-4.189645985,2
1.61696E+18,-71.09305957,-10.11885483,-8.2549741,-7.624833199,2
1.61696E+18,-71.08312769,-5.445242258,-6.151397892,-6.479189,2
1.61696E+18,-71.0731958,17.56101793,-3.399138581,-2.551987791,2
1.61696E+18,-71.06326245,18.98868575,-5.174855876,6.234882816,2
1.61696E+18,-71.05333081,9.167769328,-7.362972654,13.33574416,2
1.61696E+18,-71.04339771,8.163844215,-10.78585977,12.0725608,2
1.61696E+18,-71.03346558,19.32593033,-15.04461144,8.202410969,2
1.61696E+18,-71.02353296,22.06687506,-15.74316654,6.807392196,2
1.61696E+18,-71.01360083,19.19750386,-14.23668412,5.196088634,2
1.61696E+18,-71.00366772,15.39304494,-12.32672027,3.040179597,2
1.61696E+18,-70.99373584,9.891935251,-10.69600473,0.273139188,2
1.61696E+18,-70.98380273,7.341060681,-9.631080083,-1.497642258,2
1.61696E+18,-70.97387061,8.134163362,-8.94909209,-1.995368346,2
1.61696E+18,-70.96393872,7.790362784,-9.164501266,-0.690780955,2
1.61696E+18,-70.95400562,6.320342254,-9.326531903,0.979578315,2
1.61696E+18,-70.94407373,4.79128852,-9.134052352,2.356794305,2
1.61696E+18,-70.93414063,2.993403233,-8.634383751,3.602984745,2
1.61696E+18,-70.92420874,1.736608105,-8.124884077,4.532239817,2
1.61696E+18,-70.91427563,1.547949573,-7.608146269,5.138167775,2
1.61696E+18,-70.90434351,1.876843089,-7.297616677,5.631696558,2
1.61696E+18,-70.89441089,2.968579172,-7.2198513,5.613768102,2
1.61696E+18,-70.88447876,4.339367759,-7.514294265,4.557686393,2
1.61696E+18,-70.87454663,5.135844301,-7.456128492,2.544714293,2
1.61696E+18,-70.86461377,5.316034864,-6.656542294,0.483560639,2
1.61696E+18,-70.85468164,4.956209618,-6.25675504,-1.338555712,2
1.61696E+18,-70.84474854,4.666126017,-6.248462428,-3.203160374,2
1.61696E+18,-70.83481689,3.716564362,-5.562910606,-4.303544751,2
1.61696E+18,-70.82488354,0.823724029,-4.646495434,-4.022518901,2
1.61696E+18,-70.81495166,-1.455353122,-3.307710005,-3.396410033,2
1.61696E+18,-70.8050188,-1.362017544,-2.941469632,-2.628823486,2
1.61696E+18,-70.79508667,-1.381360104,-3.186159263,-1.69081213,2
1.61696E+18,-70.78515454,-4.547062123,-3.05494988,-1.92757389,2
1.61696E+18,-70.77522192,-8.1668206,-1.226086102,-3.031150487,2
1.61696E+18,-70.76528979,-13.87577575,5.851309615,-1.437979963,2
1.61696E+18,-70.75535669,-12.82410397,16.21804148,-0.828951116,2
1.61696E+18,-70.7454248,-4.970797531,30.90580698,1.369611944,2
1.61696E+18,-70.7354917,2.258739297,34.29934467,1.490357508,2
1.61696E+18,-70.72555957,2.529290514,33.51230232,-2.379727437,2
1.61696E+18,-70.71562646,-11.63032556,30.54937021,-4.879822544,2
1.61696E+18,-70.70569482,-13.07510936,23.32488774,-7.292705524,2
1.61696E+18,-70.69576172,2.131038507,19.67739633,-9.820679694,2
1.61696E+18,-70.68582959,2.147383785,15.16974472,-9.676476975,2
1.61696E+18,-70.67589771,-1.151428043,12.45382572,-8.858948878,2
1.61696E+18,-70.6659646,-0.500390485,10.68586211,-8.037345495,2
1.61696E+18,-70.65603247,-1.685843547,11.55630288,-7.74001616,2
1.61696E+18,-70.64609985,-0.572906563,12.55006608,-6.8280492,2
1.61696E+18,-70.63616772,-0.251479729,12.24008477,-5.393605594,2
1.61696E+18,-70.62623462,-0.095366792,9.846422038,-4.045427483,2
1.61696E+18,-70.61630273,0.059755088,6.954014252,-3.44258697,2
1.61696E+18,-70.60636963,0.161264329,3.71375515,-1.98496035,2
1.61696E+18,-70.59643774,0.762170951,0.750718999,-0.40538142,2
1.61696E+18,-70.58650586,1.585467695,-1.398262285,0.955652373,2
1.61696E+18,-70.57657275,2.212398986,-3.427524133,1.870981504,2
1.61696E+18,-70.56664063,2.486583591,-5.355260958,2.533044898,2
1.61696E+18,-70.55670776,2.617517664,-6.949075042,3.122865771,2
1.61696E+18,-70.54677563,2.80768923,-8.308188388,3.663856562,2
1.61696E+18,-70.53684277,2.70452287,-9.461654075,3.938725935,2
1.61696E+18,-70.52691089,2.377603869,-10.29605147,3.958917074,2
1.61696E+18,-70.51697778,2.116559316,-10.63553243,3.647620882,2
1.61696E+18,-70.50704565,2.230233625,-10.4168324,3.090443219,2
1.61696E+18,-70.49711377,2.46076146,-9.902065015,2.756532459,2
1.61696E+18,-70.48718066,2.885703905,-9.403181428,2.680318111,2
1.61696E+18,-70.47724878,3.259360985,-8.714232949,2.609090319,2
1.61696E+18,-70.46731567,3.353404419,-7.912761668,2.491614863,2
1.61696E+18,-70.45738379,3.151327895,-7.162301028,2.485266371,2
1.61696E+18,-70.44745068,2.606063957,-6.446952618,2.607839442,2
1.61696E+18,-70.43751855,2.303236318,-5.85720218,2.796199576,2
1.61696E+18,-70.42758569,2.08678757,-5.485811584,2.933561051,2
1.61696E+18,-70.41765356,1.654860088,-5.070393631,2.844908077,2
1.61696E+18,-70.40772144,0.898091288,-4.510594679,2.477754388,2
1.61696E+18,-70.39778882,-0.49220864,-3.651955404,1.856695789,2
1.61696E+18,-70.38785669,-1.444305366,-2.524697341,0.776595783,2
1.61696E+18,-70.37792358,-2.064532776,-1.30516373,-0.497905683,2
1.61696E+18,-70.36799194,-3.654686583,0.196915488,-1.72176914,2
1.61696E+18,-70.35805884,-5.091890593,2.035768746,-2.717104704,2
1.61696E+18,-70.34812671,-4.567591701,4.057621779,-3.25937589,2
1.61696E+18,-70.33819385,-2.640015327,5.224399367,-3.061787617,2
1.61696E+18,-70.32826172,-1.475977393,4.934146839,-1.360621706,2
1.61696E+18,-70.31832959,0.296807356,3.832710615,1.102899282,2
1.61696E+18,-70.30839673,2.072902545,2.164272376,3.453562245,2
1.61696E+18,-70.2984646,1.87659116,0.596683452,5.105306539,2
1.61696E+18,-70.28853174,1.055391681,-0.437135864,5.251812859,2
1.61696E+18,-70.27859985,-0.247909177,-0.354205068,3.75445424,2
1.61696E+18,-70.26866675,0.024579145,0.519467526,0.472295733,2
1.61696E+18,-70.25873462,0.883878053,1.285281218,-2.300407086,2
1.61696E+18,-70.24880151,0.767295163,3.296315335,-3.354946388,2
1.61696E+18,-70.23886987,0.339790758,6.617108109,-5.006093301,2
1.61696E+18,-70.22893774,-3.661679803,10.21831006,-7.056172896,2
1.61696E+18,-70.21900464,-7.221265843,13.62851014,-8.88491977,2
1.61696E+18,-70.20907275,-8.597178933,15.9164387,-9.171303932,2
1.61696E+18,-70.19913965,-9.881378786,16.66950046,-7.004529218,2
1.61696E+18,-70.18920752,-8.790929819,16.9333326,-2.909137972,2
1.61696E+18,-70.17927466,-9.376144952,17.53596999,1.408826057,2
1.61696E+18,-70.16934253,-9.183229348,18.81184918,3.721984341,2
1.61696E+18,-70.15940967,-6.658083094,19.33656045,4.439545751,2
1.61696E+18,-70.14947778,-5.342803043,19.18461632,4.25657491,2
1.61696E+18,-70.13954468,-4.386535169,18.95842739,3.616176527,2
1.61696E+18,-70.12961255,-2.73084769,18.03811288,2.368232814,2
1.61696E+18,-70.11968091,-2.330650248,17.53415096,-0.972559377,2
1.61696E+18,-70.1097478,-3.78465181,16.99832676,-6.197232007,2
1.61696E+18,-70.09981567,-5.727578021,14.82405731,-10.5951221,2
1.61696E+18,-70.08988257,-4.414055044,10.07697735,-11.62645018,2
1.61696E+18,-70.07995068,-3.975502299,4.786235329,-11.04191543,2
1.61696E+18,-70.07001758,-5.507989514,0.100315647,-11.17578264,2
1.61696E+18,-70.06008545,-7.657905448,-4.806979426,-10.13922893,2
1.61696E+18,-70.05015283,-5.526156454,-5.436788903,-3.070895345,2
1.61696E+18,-70.0402207,0.019368717,-3.938257148,6.293547771,2
1.61696E+18,-70.03028882,1.043996427,-4.617924004,9.678926122,2
1.61696E+18,-70.02035571,5.479568891,-6.004660102,7.20334031,2
1.61696E+18,-70.01042358,11.76361993,-5.586802938,1.418014741,2
1.61696E+18,-70.00049048,18.44957537,-4.424147983,-1.092621926,2
1.61696E+18,-69.99055884,25.22846979,-5.190535091,-0.064108753,2
1.61696E+18,-69.98062573,21.72552596,-4.404772252,0.073054715,2
1.61696E+18,-69.9706936,14.29368786,-0.70647829,-3.118696084,2
1.61696E+18,-69.96076172,6.956241864,0.366760598,-6.585317717,2
1.61696E+18,-69.95082861,-5.160130016,-1.498939166,-8.059872968,2
1.61696E+18,-69.94089648,-4.427921072,-0.626178427,-6.276702434,2
1.61696E+18,-69.93096362,10.46355791,1.083488187,-4.038091733,2
1.61696E+18,-69.92103149,13.26790455,-0.439237805,-0.382455011,2
1.61696E+18,-69.91109863,9.859496624,-3.483928157,4.959730193,2
1.61696E+18,-69.90116675,11.13136833,-8.112249637,9.809448691,2
1.61696E+18,-69.89123364,19.67321116,-14.63253053,11.73538168,2
1.61696E+18,-69.88130176,29.01778959,-19.79325325,10.23402902,2
1.61696E+18,-69.87136865,31.86428026,-21.22294469,6.292163623,2
1.61696E+18,-69.86143677,26.60399943,-21.45856313,1.853949266,2
1.61696E+18,-69.85150464,18.39794104,-21.95648693,-2.609150233,2
1.61696E+18,-69.84157153,14.88056888,-20.56554695,-5.356923339,2
1.61696E+18,-69.83163965,12.39977615,-17.66053395,-5.340902763,2
1.61696E+18,-69.82170654,11.49133561,-14.99706059,-3.282515066,2
1.61696E+18,-69.81177441,11.52773846,-12.84368896,-0.793628458,2
1.61696E+18,-69.8018418,10.69898345,-10.75328671,1.046218195,2
1.61696E+18,-69.79190967,8.991521365,-8.426693772,2.550125212,2
1.61696E+18,-69.78197656,7.210476153,-6.396471554,3.726312726,2
1.61696E+18,-69.77204468,5.775993969,-5.453637162,4.706750288,2
1.61696E+18,-69.76211279,5.128113414,-5.388291706,5.552253603,2
1.61696E+18,-69.75217969,4.536349883,-5.909009524,5.513585142,2
1.61696E+18,-69.7422478,4.2382671,-7.150913373,4.42277348,2
1.61696E+18,-69.7323147,3.85477807,-8.255857313,2.793087873,2
1.61696E+18,-69.72238257,2.09125624,-7.978986829,1.510163155,2
1.61696E+18,-69.71244971,0.673286215,-7.36083798,0.944022726,2
1.61696E+18,-69.70251758,1.896200701,-6.176393802,0.826245656,2
1.61696E+18,-69.69258447,4.343690007,-3.774335583,1.0505609,2
1.61696E+18,-69.68265259,7.610465067,-1.360620244,0.883752381,2
1.61696E+18,-69.67272046,10.59296171,-0.012881693,0.450783866,2
1.61696E+18,-69.6627876,7.670657377,0.158239428,1.03399555,2
1.61696E+18,-69.65285596,2.192156408,0.39524318,1.658466003,2
1.61696E+18,-69.64292285,-0.405822442,1.577075714,1.207450375,2
1.61696E+18,-69.63299072,-3.056571344,2.987679594,-0.670933368,2
1.61696E+18,-69.62305762,-9.260555748,5.878890865,-5.266358686,2
1.61696E+18,-69.61312573,-13.14276543,10.36768814,-8.466488022,2
1.61696E+18,-69.60319263,-8.933943621,18.35693566,-8.192906643,2
1.61696E+18,-69.5932605,-7.779885814,32.53658331,-6.330113122,2
1.61696E+18,-69.58332861,-6.909425168,35.05634494,-2.034112795,2
1.61696E+18,-69.57339551,7.437151404,26.87690335,-3.225815273,2
1.61696E+18,-69.56346338,1.182687105,21.78540205,-5.824946509,2
1.61696E+18,-69.55353076,-12.18626433,18.29073973,-8.798412284,2
1.61696E+18,-69.54359863,-6.213772808,16.53321451,-11.66292552,2
1.61696E+18,-69.53366553,2.976554097,14.36803437,-8.237126309,2
1.61696E+18,-69.52373389,2.307687452,13.27868664,-5.025991595,2
1.61696E+18,-69.51380176,1.430308697,13.57616386,-4.357162652,2
1.61696E+18,-69.50386865,0.986806221,15.23224648,-4.445050486,2
1.61696E+18,-69.49393677,0.620076603,14.86925488,-4.99262767,2
1.61696E+18,-69.48400366,-0.606716186,12.04137538,-5.059744811,2
1.61696E+18,-69.47407153,-0.747989281,8.520750943,-4.955775318,2
1.61696E+18,-69.46413867,-0.895867474,5.00553099,-4.571081004,2
1.61696E+18,-69.45420654,-1.879283468,2.092539265,-3.651305124,2
1.61696E+18,-69.44427344,-2.722687765,0.283773687,-2.626185539,2
1.61696E+18,-69.43434155,-2.758129665,-0.459510778,-0.821972217,2
1.61696E+18,-69.42440967,-2.179189813,-1.104593811,1.248679334,2
1.61696E+18,-69.41447681,-1.12759767,-2.136568961,2.740861135,2
1.61696E+18,-69.40454492,-0.750469992,-3.445935403,3.710764444,2
1.61696E+18,-69.39461182,-0.393893081,-4.677008061,3.999550406,2
1.61696E+18,-69.38467969,0.177377844,-5.682538856,4.054357809,2
1.61696E+18,-69.37474658,0.861297754,-6.58476359,4.0844186,2
1.61696E+18,-69.3648147,1.621716089,-7.554242244,3.96867216,2
1.61696E+18,-69.35488159,1.991964675,-8.326948618,3.716509125,2
1.61696E+18,-69.34494946,1.824499738,-8.649414732,3.358056044,2
1.61696E+18,-69.33501758,1.571156261,-8.42085849,2.957954903,2
1.61696E+18,-69.32508447,1.392981714,-7.924457367,2.757209627,2
1.61696E+18,-69.31515259,1.375575237,-7.275034842,2.733511064,2
1.61696E+18,-69.30521973,1.84646724,-6.571447597,2.743982774,2
1.61696E+18,-69.2952876,2.091197203,-5.844043423,2.612905786,2
1.61696E+18,-69.28535474,1.563327175,-5.001223064,2.233893609,2
1.61696E+18,-69.27542285,0.964512556,-4.03596232,1.668842436,2
1.61696E+18,-69.26548975,0.845228005,-3.121813924,1.178257013,2
1.61696E+18,-69.25555762,1.256039341,-2.283493799,0.820721048,2
1.61696E+18,-69.24562573,1.797003829,-1.068475035,-0.105773474,2
1.61696E+18,-69.23569263,1.796381897,1.7551053,-2.209736196,2
1.61696E+18,-69.2257605,-0.256281303,8.751865637,-5.86635287,2
1.61696E+18,-69.21582764,-9.91241456,20.50630916,-10.24159508,2
1.61696E+18,-69.20589551,-14.81589738,21.41046399,-7.603528546,2
1.61696E+18,-69.1959624,-6.593630788,8.750774335,-0.565582796,2
1.61696E+18,-69.18603076,3.995249202,-0.018770167,0.827213332,2
1.61696E+18,-69.1760979,9.280769684,-6.363792689,0.729612205,2
1.61696E+18,-69.16616577,6.077143739,-9.049384941,1.191777443,2
1.61696E+18,-69.15623389,1.965546039,-9.315283948,1.953698073,2
1.61696E+18,-69.14630078,-1.145241902,-8.07660783,2.683015387,2
1.61696E+18,-69.1363689,-2.07871883,-5.300526913,3.205823748,2
1.61696E+18,-69.12643579,-2.056784061,-2.579288178,3.385165001,2
1.61696E+18,-69.11650391,-2.892428245,-0.696359632,2.840939173,2
1.61696E+18,-69.1065708,-3.907326296,0.414225529,2.175058266,2
1.61696E+18,-69.09663867,-3.933552624,-0.039900049,1.188006692,2
1.61696E+18,-69.08670581,-3.431387823,-1.995297035,0.327710444,2
1.61696E+18,-69.07677368,-3.442420381,-4.248907152,0.073928575,2
1.61696E+18,-69.06684155,-3.774730428,-6.151930392,0.194824799,2
1.61696E+18,-69.05690869,-4.099540474,-7.86971923,0.867144653,2
1.61696E+18,-69.04697656,-4.952016258,-8.937198239,2.198340942,2
1.61696E+18,-69.0370437,-7.555961908,-8.208277815,3.451062537,2
1.61696E+18,-69.02711206,-8.352972117,-6.23625352,3.419522321,2
1.61696E+18,-69.01717896,-3.916743236,-4.882191027,1.963606596,2
1.61696E+18,-69.00724683,1.507171572,-2.892201451,1.91896812,2
1.61696E+18,-68.99731396,9.224837369,0.434784333,5.538196436,2
1.61696E+18,-68.98738184,8.850317828,1.412951904,7.618366049,2
1.61696E+18,-68.97744971,0.501326305,1.614697881,4.431926216,2
1.61696E+18,-68.96751685,7.798022359,2.231177921,0.315365488,2
1.61696E+18,-68.95758472,4.903262456,8.174391328,-4.695978135,2
1.61696E+18,-68.94765161,-3.033255643,18.45040305,-11.08077796,2
1.61696E+18,-68.93771973,-22.25212641,34.70090654,-18.7721578,2
1.61696E+18,-68.92778687,-28.35845591,43.5151389,-16.99317478,2
1.61696E+18,-68.91785474,14.4293437,27.31888373,-0.551501664,2
1.61696E+18,-68.90792163,2.939658198,24.14767011,5.017486801,2
1.61696E+18,-68.89798999,-12.49733987,20.09675338,2.902996109,2
1.61696E+18,-68.88805786,-0.542785858,17.07242543,-0.06363719,2
1.61696E+18,-68.87812476,0.433692446,16.86099685,-3.061073624,2
1.61696E+18,-68.86819287,-0.708337654,15.69049761,-6.315700566,2
1.61696E+18,-68.85825977,-0.560374669,14.88961962,-10.30820018,2
1.61696E+18,-68.84832764,-6.933088952,15.91939755,-13.77300395,2
1.61696E+18,-68.83839478,-13.46234459,16.16478218,-11.72714577,2
1.61696E+18,-68.82846265,-10.29104329,13.14339321,-6.60378101,2
1.61696E+18,-68.81853052,-3.615273733,7.060251689,-5.022832838,2
1.61696E+18,-68.80859766,-4.266473204,1.045129815,-6.654340985,2
1.61696E+18,-68.79866577,-9.031997168,-3.401138815,-7.021611285,2
1.61696E+18,-68.78873291,-12.94373807,-5.636701234,-3.183443574,2
1.61696E+18,-68.77880103,-3.570993862,-6.865103796,5.459157386,2
1.61696E+18,-68.76886792,11.9150076,-9.544593055,9.101425509,2
1.61696E+18,-68.75893579,10.92079315,-10.81371107,6.352187591,2
1.61696E+18,-68.74900293,10.97634844,-9.076005821,-0.871021495,2
1.61696E+18,-68.7390708,15.94572909,-5.925720421,-5.109475349,2
1.61696E+18,-68.72913867,19.6449881,-4.384619691,-1.61038411,2
1.61696E+18,-68.71920581,22.19698028,-3.387868999,1.474983705,2
1.61696E+18,-68.70927368,13.59931093,0.107805126,2.679924435,2
1.61696E+18,-68.69934058,6.851216725,3.592285072,0.914799846,2
1.61696E+18,-68.68940894,1.454542975,1.449115105,-1.350482881,2
1.61696E+18,-68.67947583,-10.28870754,-0.122250123,-2.031813286,2
1.61696E+18,-68.6695437,0.914348303,-0.386197704,-0.594465192,2
1.61696E+18,-68.65961084,15.59923621,-1.148283315,0.057505264,2
1.61696E+18,-68.64967896,16.04079456,-3.140739574,2.742357511,2
1.61696E+18,-68.63974683,8.249849012,-6.862560541,6.781971339,2
1.61696E+18,-68.62981372,8.687623759,-10.92255139,8.395786592,2
1.61696E+18,-68.61988184,16.87668659,-15.04317586,8.78351399,2
1.61696E+18,-68.60994873,26.63918765,-17.28483133,7.064263263,2
1.61696E+18,-68.6000166,29.89081512,-16.76621779,4.449579946,2
1.61696E+18,-68.59008374,23.97261983,-17.0164446,2.299470243,2
1.61696E+18,-68.58015161,18.75997754,-16.85032699,-0.731932757,2
1.61696E+18,-68.57021851,15.66238094,-16.28429119,-3.112976245,2
1.61696E+18,-68.56028687,12.93390758,-15.28965705,-2.91741714,2
1.61696E+18,-68.55035474,11.87595803,-14.06124689,-0.832183814,2
1.61696E+18,-68.54042188,11.69749999,-12.95171679,1.226595951,2
1.61696E+18,-68.53048999,10.87381395,-11.76802372,2.709847865,2
1.61696E+18,-68.52055688,8.999687721,-10.3564548,3.95898108,2
1.61696E+18,-68.51062476,7.140200255,-8.999467356,4.950471367,2
1.61696E+18,-68.50069189,5.285760721,-7.990484375,5.757561656,2
1.61696E+18,-68.49075977,2.97353358,-7.54933343,6.543494592,2
1.61696E+18,-68.48082666,1.499143164,-8.019356249,6.994325219,2
1.61696E+18,-68.47089478,2.37898071,-8.972557722,6.282694953,2
1.61696E+18,-68.46096289,6.704811527,-8.976777385,4.077954957,2
1.61696E+18,-68.45102979,10.02354503,-7.265815179,1.631345065,2
1.61696E+18,-68.4410979,9.834178643,-4.849021747,-0.284990369,2
1.61696E+18,-68.43116479,7.525555664,-2.991797551,-1.104014842,2
1.61696E+18,-68.42123267,3.708628893,-1.989409146,-1.763870498,2
1.61696E+18,-68.4112998,-0.519566895,-1.679378151,-2.028852098,2
1.61696E+18,-68.40136792,-1.63391813,-1.239343058,-1.743709753,2
1.61696E+18,-68.39143481,-0.417509957,-0.422085595,-0.584664221,2
1.61696E+18,-68.38150269,-0.187267223,0.108904027,1.080220271,2
1.61696E+18,-68.3715708,1.321571113,0.011854104,2.454240242,2
1.61696E+18,-68.3616377,4.63860205,0.13898177,2.206807157,2
1.61696E+18,-68.35170557,2.465244451,2.367956627,-1.81436939,2
1.61696E+18,-68.34177271,-2.276250988,6.841534704,-6.643946432,2
1.61696E+18,-68.33184082,-8.07204739,16.26274688,-12.05331483,2
1.61696E+18,-68.32190771,-1.32879595,28.82402993,-16.02021355,2
1.61696E+18,-68.31197583,-6.29206367,38.78779708,-13.02311029,2
1.61696E+18,-68.3020437,-11.4501993,39.39366103,-9.235387989,2
1.61696E+18,-68.29211084,-6.605854894,29.33291469,-2.452152914,2
1.61696E+18,-68.28217896,-8.858450281,30.03528788,4.527187502,2
1.61696E+18,-68.27224585,-12.99679044,33.10716786,3.253500568,2
1.61696E+18,-68.26231372,6.659235186,22.07340066,-2.814678943,2
1.61696E+18,-68.25238062,8.834180348,13.97665254,-2.673815013,2
1.61696E+18,-68.24244873,-1.70145525,10.08865375,-2.217368153,2
1.61696E+18,-68.23251563,-2.173204017,6.629714493,-3.103152478,2
1.61696E+18,-68.22258398,0.45894876,6.822714853,-5.468285865,2
1.61696E+18,-68.21265186,1.314015729,8.290717029,-8.311269403,2
1.61696E+18,-68.20271875,1.29724945,7.908943571,-10.024188,2
1.61696E+18,-68.19278687,0.056040013,5.698333807,-9.506519637,2
1.61696E+18,-68.18285376,-0.649859747,3.622914019,-7.967765762,2
1.61696E+18,-68.17292163,-0.409169926,1.631557831,-5.953669335,2
1.61696E+18,-68.16298877,0.057070379,-0.588938537,-3.077223379,2
1.61696E+18,-68.15305615,0.352702992,-2.493220253,-0.061171823,2
1.61696E+18,-68.14312402,0.635060967,-4.343368812,2.14665284,2
1.61696E+18,-68.13319092,0.684446491,-5.888519694,3.472895307,2
1.61696E+18,-68.12325903,0.540625501,-6.791441178,4.227158261,2
1.61696E+18,-68.11332593,0.738576287,-7.059373738,4.455411721,2
1.61696E+18,-68.1033938,1.221740766,-7.429756033,4.680376369,2
1.61696E+18,-68.09346069,1.545322147,-8.038795693,4.874743633,2
1.61696E+18,-68.08352905,1.519787308,-8.478017132,4.892063601,2
1.61696E+18,-68.07359619,0.684420188,-8.345501928,4.855541505,2
1.61696E+18,-68.06366431,-0.111459009,-7.849531013,4.747907059,2
1.61696E+18,-68.05373218,-0.583565612,-7.074293074,4.529125192,2
1.61696E+18,-68.04379907,-0.823003314,-6.226462778,4.035653108,2
1.61696E+18,-68.03386719,-0.761719701,-5.480300128,3.269840585,2
1.61696E+18,-68.02393408,-0.575679243,-4.745260929,2.322350768,2
1.61696E+18,-68.01400195,-0.245558888,-3.999543099,1.382009654,2
1.61696E+18,-68.00406885,0.329071868,-3.225341518,0.443886508,2
1.61696E+18,-67.99413696,0.892748612,-2.550209968,-0.348941886,2
1.61696E+18,-67.98420386,1.247595338,-1.886387747,-1.07207189,2
1.61696E+18,-67.97427197,1.268632865,-1.16063134,-1.861907386,2
1.61696E+18,-67.96434009,0.921802126,-0.619368747,-2.522863111,2
1.61696E+18,-67.95440698,0.229998258,-0.31987259,-2.922861377,2
1.61696E+18,-67.94447485,-0.125981345,-0.204289231,-2.998845131,2
1.61696E+18,-67.93454224,-0.019606033,-0.268537539,-2.591647017,2
1.61696E+18,-67.92461011,-0.205977331,-0.696123485,-1.852595368,2
1.61696E+18,-67.914677,-1.377670163,-1.269248367,-0.751614486,2
1.61696E+18,-67.90474512,-3.292250278,-1.620856988,0.375139427,2
1.61696E+18,-67.89481201,-5.394791005,-1.774216243,0.810669609,2
1.61696E+18,-67.88487988,-7.204810967,-2.343282789,0.61103551,2
1.61696E+18,-67.87494824,-7.981696673,-3.424388173,0.327877617,2
1.61696E+18,-67.86501489,-6.215061679,-4.250643182,0.763283004,2
1.61696E+18,-67.85508301,-2.67444425,-3.957028484,2.10905084,2
1.61696E+18,-67.8451499,0.07069237,-2.347541616,3.569872749,2
1.61696E+18,-67.83521802,2.226131743,-0.516491725,3.906735052,2
1.61696E+18,-67.82528516,1.973226657,0.767851335,2.759567296,2
1.61696E+18,-67.81535327,0.821402893,1.204006372,1.602181514,2
1.61696E+18,-67.80542114,3.188767692,0.963864906,2.368714314,2
1.61696E+18,-67.79548804,6.306663857,0.357447411,5.260567243,2
1.61696E+18,-67.78555615,3.097530547,-0.723449883,6.840761382,2
1.61696E+18,-67.77562305,1.584683267,-2.582948455,4.602641679,2
1.61696E+18,-67.76569092,4.643872684,-3.717904671,1.890094785,2
1.61696E+18,-67.75575781,5.490625707,-2.622174549,-0.400086237,2
1.61696E+18,-67.74582617,4.353916217,1.287247549,-4.349992029,2
1.61696E+18,-67.73589307,-0.676029668,8.830763817,-10.92496196,2
1.61696E+18,-67.72596094,-8.562111711,22.47164244,-18.90345896,2
1.61696E+18,-67.71602905,-6.384655444,34.037874,-20.26414642,2
1.61696E+18,-67.70609595,-5.709350291,33.75894016,-8.330735736,2
1.61696E+18,-67.69616382,-4.180209463,32.24200765,3.184837366,2
1.61696E+18,-67.6862312,-3.812878372,30.46819415,6.182489196,2
1.61696E+18,-67.67629907,-4.777143091,25.89252874,5.099470672,2
1.61696E+18,-67.66636597,-5.111407778,20.59596079,4.057275742,2
1.61696E+18,-67.65643408,-4.956171624,17.22291527,2.016600519,2
1.61696E+18,-67.64650098,-4.263094667,14.52236569,-1.96127523,2
1.61696E+18,-67.63656909,-4.641512969,11.94560381,-6.527832912,2
1.61696E+18,-67.62663721,-8.649479029,9.686594465,-8.973522767,2
1.61696E+18,-67.6167041,-16.49505575,7.433762931,-9.828512288,2
1.61696E+18,-67.60677197,-18.52157911,4.533990752,-9.95690369,2
1.61696E+18,-67.59683887,-11.40009876,2.303376311,-11.89903144,2
1.61696E+18,-67.58690698,-8.243142792,2.908922284,-14.37164204,2
1.61696E+18,-67.57697412,-14.85950739,6.459591735,-13.37663381,2
1.61696E+18,-67.56704199,-18.70558661,6.290371479,-1.520338805,2
1.61696E+18,-67.55711011,-4.264370678,-0.426997917,10.27401032,2
1.61696E+18,-67.547177,19.4230919,-8.1304195,13.55448979,2
1.61696E+18,-67.53724487,24.51901219,-11.99908172,10.35778166,2
1.61696E+18,-67.52731201,14.50653566,-11.37234098,-1.756093288,2
1.61696E+18,-67.51738013,7.564334015,-10.02468485,-12.87014559,2
1.61696E+18,-67.50744702,17.31591036,-9.329121335,-15.33435894,2
1.61696E+18,-67.49751514,29.19979334,-8.214026004,-8.826761011,2
1.61696E+18,-67.48758203,23.25852347,-4.193430179,-0.638723143,2
1.61696E+18,-67.4776499,8.129235258,1.884038554,4.099685143,2
1.61696E+18,-67.46771802,1.565909593,5.428523763,3.035739569,2
1.61696E+18,-67.45778491,-1.703577942,1.440063783,1.247380965,2
1.61696E+18,-67.44785278,-14.45774328,0.036208793,2.115583456,2
1.61696E+18,-67.43792017,5.221286788,1.389057819,2.318515282,2
1.61696E+18,-67.42798804,15.76559348,1.245015551,3.803322024,2
1.61696E+18,-67.41805493,10.47031966,-0.281774622,7.201907647,2
1.61696E+18,-67.40812329,8.054660202,-4.455028859,7.090214282,2
1.61696E+18,-67.39819116,10.7234796,-8.179514662,4.875926705,2
1.61696E+18,-67.38825806,17.68574788,-12.09407354,3.400913482,2
1.61696E+18,-67.37832617,27.89319753,-14.6462738,2.900074961,2
1.61696E+18,-67.36839307,30.03424743,-16.28603891,3.525158285,2
1.61696E+18,-67.35846094,23.54470538,-18.68846947,2.384517886,2
1.61696E+18,-67.34852783,18.67860391,-20.49290724,-0.98244861,2
1.61696E+18,-67.33859595,16.15801809,-20.678355,-3.186188489,2
1.61696E+18,-67.32866309,14.50189222,-18.56968527,-2.912850855,2
1.61696E+18,-67.31873096,13.63908881,-15.83718221,-1.547984644,2
1.61696E+18,-67.30879907,13.0702251,-13.88347975,-0.208312203,2
1.61696E+18,-67.29886597,12.2653291,-12.44952481,1.16437228,2
1.61696E+18,-67.28893433,11.3886772,-11.45814178,2.393965221,2
1.61696E+18,-67.27900122,10.384015,-11.0400286,3.523249821,2
1.61696E+18,-67.26906909,8.54189193,-11.48042375,4.528738239,2
1.61696E+18,-67.25913599,5.028937001,-11.69692482,5.587433053,2
1.61696E+18,-67.2492041,-0.135975574,-11.3674006,6.750286161,2
1.61696E+18,-67.239271,-1.716349745,-10.93957383,6.856890094,2
1.61696E+18,-67.22933887,3.627303193,-10.62254436,5.108314489,2
1.61696E+18,-67.21940698,8.848015396,-9.784324186,3.409104095,2
1.61696E+18,-67.20947388,8.572103529,-7.325435242,2.873094599,2
1.61696E+18,-67.19954175,4.848330843,-3.955665379,2.5542911,2
1.61696E+18,-67.18960913,0.254915841,-1.88761232,2.273525655,2
1.61696E+18,-67.17967725,-2.478690792,-0.483630489,1.82136787,2
1.61696E+18,-67.16974414,-3.110267863,0.603476766,0.450190868,2
1.61696E+18,-67.15981226,-4.009377096,2.290577035,-2.004666482,2
1.61696E+18,-67.14988062,-5.209856462,6.821553993,-4.572438849,2
1.61696E+18,-67.13994751,-18.15768384,19.28147628,-10.08159507,2
1.61696E+18,-67.13001563,-6.911614203,28.81126865,-18.45260553,2
1.61696E+18,-67.12008252,19.45570939,27.75746219,-22.38491809,2
1.61696E+18,-67.11015039,-4.358301592,33.02897987,-20.34709475,2
1.61696E+18,-67.10021753,-33.6634059,38.35524387,-7.502306305,2
1.61696E+18,-67.0902854,12.34953649,26.76078691,6.374487101,2
1.61696E+18,-67.08035229,10.76640689,17.37611144,10.8926075,2
1.61696E+18,-67.07042017,-6.443467699,16.45146912,6.431577354,2
1.61696E+18,-67.06048828,-1.749848694,20.62562177,0.832974672,2
1.61696E+18,-67.05055542,1.795738923,20.24728179,-1.6146292,2
1.61696E+18,-67.04062354,-3.664849665,17.96182459,-1.759783667,2
1.61696E+18,-67.03069067,-11.67758883,19.65580176,-2.695261413,2
1.61696E+18,-67.02075854,-1.193421557,19.91885063,-5.099374226,2
1.61696E+18,-67.01082544,7.729041762,12.3271458,-5.357598462,2
1.61696E+18,-67.00089355,4.159679301,9.370095735,-5.857756891,2
1.61696E+18,-66.99096045,2.587734812,7.954533356,-6.635924453,2
1.61696E+18,-66.98102832,2.090318082,5.325769491,-7.263420977,2
1.61696E+18,-66.97109644,1.244410863,2.602749718,-7.222695583,2
1.61696E+18,-66.96116333,0.574990968,-0.256169056,-6.252325534,2
1.61696E+18,-66.9512312,0.223138455,-2.593288062,-4.635884024,2
1.61696E+18,-66.94129858,-0.098405283,-4.562310838,-2.54588626,2
1.61696E+18,-66.93136646,-0.670907649,-6.03971914,-0.132036627,2
1.61696E+18,-66.92143335,-0.983776936,-7.082564644,2.452112582,2
1.61696E+18,-66.91150171,-0.93190661,-8.250978308,4.755078558,2
1.61696E+18,-66.90156958,-1.107138162,-8.94397577,6.236736335,2
1.61696E+18,-66.89163647,-0.957730933,-8.919797607,6.79458766,2
1.61696E+18,-66.88170459,-0.04474274,-9.021323214,6.712946903,2
1.61696E+18,-66.87177148,1.218246494,-8.785709454,5.679921367,2
1.61696E+18,-66.86183936,2.011443867,-8.264867133,4.133542405,2
1.61696E+18,-66.85190625,2.099801365,-7.557966818,2.659966228,2
1.61696E+18,-66.84197437,2.089092924,-7.1426155,1.511971958,2
1.61696E+18,-66.83204126,1.729939294,-6.651372198,0.522309179,2
1.61696E+18,-66.82210913,0.915385829,-5.675940189,-0.428591031,2
1.61696E+18,-66.81217749,-0.298488478,-4.556978829,-0.984825276,2
1.61696E+18,-66.80224463,-1.684196949,-3.558937513,-1.104488013,2
1.61696E+18,-66.7923125,-2.81745396,-3.042755585,-0.909755568,2
1.61696E+18,-66.78237964,-3.08747034,-2.55523861,-0.725350164,2
1.61696E+18,-66.77244751,-2.630454887,-1.579485698,-0.627804274,2
1.61696E+18,-66.7625144,-1.815253771,0.385379374,-0.218650496,2
1.61696E+18,-66.75258252,-0.521304678,4.51462788,-0.435841148,2
1.61696E+18,-66.74264941,2.074848126,12.23518648,-2.767138901,2
1.61696E+18,-66.73271729,5.133293447,20.24768394,-4.572559845,2
1.61696E+18,-66.7227854,5.158772756,20.3250349,-2.449201955,2
1.61696E+18,-66.71285229,2.148522434,9.80642379,0.116663117,2
1.61696E+18,-66.70292041,-0.399186365,-0.440969159,0.904362039,2
1.61696E+18,-66.69298755,-2.019488058,-5.627397399,1.23354577,2
1.61696E+18,-66.68305542,-5.525704034,-7.431098095,1.13489075,2
1.61696E+18,-66.67312256,-7.172370002,-6.944662486,0.889748115,2
1.61696E+18,-66.66319067,-1.457887609,-6.407380486,0.029263504,2
1.61696E+18,-66.65325854,0.776647221,-5.724713864,-0.473249088,2
1.61696E+18,-66.64332544,0.57258946,-4.185082622,-0.689929307,2
1.61696E+18,-66.63339355,-0.315701442,-2.748711848,-0.824983089,2
1.61696E+18,-66.62346045,-1.655132183,-1.553973656,-0.939013665,2
1.61696E+18,-66.61352832,-3.239712574,-0.226964005,-0.71827891,2
1.61696E+18,-66.60359521,-5.52013471,1.327038877,-0.055461775,2
1.61696E+18,-66.59366333,-9.026014002,3.108867349,0.303277137,2
1.61696E+18,-66.58373022,-11.7082926,4.512424817,0.108094464,2
1.61696E+18,-66.57379858,-10.64296989,4.533184697,0.847335206,2
1.61696E+18,-66.56386646,-5.707384544,3.091017219,2.28444014,2
1.61696E+18,-66.55393359,-1.171041529,0.487433973,3.373206852,2
1.61696E+18,-66.54400146,0.467975239,-2.81021115,4.247226944,2
1.61696E+18,-66.5340686,1.324697575,-6.387317357,4.843306292,2
1.61696E+18,-66.52413647,4.023970269,-9.549133036,5.115811566,2
1.61696E+18,-66.51420337,6.488681636,-11.79868423,4.220867637,2
1.61696E+18,-66.50427148,0.21741847,-12.49681847,3.363897756,2
1.61696E+18,-66.49433936,-8.078940072,-11.61857083,2.257889986,2
1.61696E+18,-66.48440625,-6.972292836,-9.24738004,3.244752321,2
1.61696E+18,-66.47447461,-2.75540024,-4.616982339,5.033688579,2
1.61696E+18,-66.4645415,0.99919224,-2.047199071,3.732024089,2
1.61696E+18,-66.45460938,4.979596339,-1.294208621,3.534655597,2
1.61696E+18,-66.44467651,8.157323289,0.33270986,2.945252657,2
1.61696E+18,-66.43474438,4.042719393,0.820090056,0.304596549,2
1.61696E+18,-66.42481152,-1.276240126,1.270441376,-3.165969877,2
1.61696E+18,-66.41487964,-3.359839421,3.63794383,-6.722126819,2
1.61696E+18,-66.40494751,-3.731533383,7.495579043,-11.00250229,2
1.61696E+18,-66.3950144,-7.944042357,15.44719388,-17.82131488,2
1.61696E+18,-66.38508252,-1.738270485,25.23088503,-22.89203993,2
1.61696E+18,-66.37514941,1.199998597,24.01445055,-12.70691785,2
1.61696E+18,-66.36521729,-4.710874675,19.80248869,1.691613655,2
1.61696E+18,-66.35528418,-2.250065576,20.70007583,7.842303984,2
1.61696E+18,-66.34535254,-3.860107741,22.8614367,7.767455956,2
1.61696E+18,-66.33542041,-2.801882005,24.10338205,5.011929752,2
1.61696E+18,-66.3254873,-0.792328189,23.31363219,3.311626302,2
1.61696E+18,-66.31555542,-0.278703544,21.03735665,1.979431357,2
1.61696E+18,-66.30562231,-0.2845115,18.00744652,-1.305382341,2
1.61696E+18,-66.29569019,-3.113483902,16.78160942,-5.641343507,2
1.61696E+18,-66.28575757,-8.821686192,19.06963268,-10.75989648,2
1.61696E+18,-66.27582544,-13.40734926,20.96928089,-13.54873459,2
1.61696E+18,-66.26589233,-10.70157406,16.63050467,-13.34410166,2
1.61696E+18,-66.25596045,-9.517416879,9.248395355,-14.76876738,2
1.61696E+18,-66.24602856,-11.71971766,2.839077179,-17.56268615,2
1.61696E+18,-66.23609546,-10.44805171,-2.599730078,-15.06665493,2
1.61696E+18,-66.22616357,-11.3273024,-6.860442818,-4.048285503,2
1.61696E+18,-66.21623047,-2.406827333,-6.678741266,7.787877397,2
1.61696E+18,-66.20629834,13.9451094,-10.05067854,12.42374739,2
1.61696E+18,-66.19636548,14.28135445,-12.541255,14.84760185,2
1.61696E+18,-66.18643335,11.12527293,-8.649461494,9.935060107,2
1.61696E+18,-66.17650122,15.40311742,-4.950336927,1.310437871,2
1.61696E+18,-66.1665686,19.94212396,-1.564870897,-2.442559448,2
1.61696E+18,-66.15663623,25.38763743,-0.085979663,-1.990514184,2
1.61696E+18,-66.14670313,17.6081339,1.617850792,-0.481722025,2
1.61696E+18,-66.13677124,0.551903815,6.353842957,-2.255150917,2
1.61696E+18,-66.12683813,2.650692203,4.969564774,-5.27080456,2
1.61696E+18,-66.11690601,-5.7577715,1.298546942,-3.967580273,2
1.61696E+18,-66.1069729,2.925087821,0.4432108,-1.574512586,2
1.61696E+18,-66.09704102,16.8607572,-1.539459393,-0.039159459,2
1.61696E+18,-66.08710889,14.64533272,-1.921693454,2.874008207,2
1.61696E+18,-66.07717578,4.897765028,-3.999545145,5.582764477,2
1.61696E+18,-66.06724414,8.171502621,-8.523838972,6.403514458,2
1.61696E+18,-66.05731128,21.41116541,-13.35767542,7.490690102,2
1.61696E+18,-66.04737915,28.41894925,-16.70647147,7.385338799,2
1.61696E+18,-66.03744629,31.93350869,-17.44624238,4.913779174,2
1.61696E+18,-66.02751416,27.20974882,-17.55735765,2.112012027,2
1.61696E+18,-66.01758105,20.80099237,-18.47912529,-0.715047308,2
1.61696E+18,-66.00764917,17.13850914,-19.15683867,-3.047531421,2
1.61696E+18,-65.99771704,13.61061091,-19.07384124,-3.515304708,2
1.61696E+18,-65.98778394,11.67416938,-17.49957649,-2.742878027,2
1.61696E+18,-65.97785205,10.57957732,-14.40237854,-0.992449926,2
1.61696E+18,-65.96791895,9.640386256,-11.5923784,1.063849128,2
1.61696E+18,-65.95798706,8.313602815,-9.183575385,3.00330971,2
1.61696E+18,-65.9480542,7.938128164,-7.179423428,4.584038393,2
1.61696E+18,-65.93812207,7.372559982,-5.784938908,5.86159077,2
1.61696E+18,-65.92818994,6.31728462,-4.851496613,6.607539486,2
1.61696E+18,-65.91825732,4.835560208,-4.89219395,6.910043592,2
1.61696E+18,-65.9083252,3.398725908,-6.351152403,6.725868928,2
1.61696E+18,-65.89839209,2.451801032,-7.924643829,5.770753731,2
1.61696E+18,-65.88846021,3.267097424,-7.933841865,4.318487761,2
1.61696E+18,-65.8785271,5.013699099,-6.705628104,2.940823443,2
1.61696E+18,-65.86859497,6.581098054,-5.454132252,2.203784448,2
1.61696E+18,-65.85866187,7.321677936,-4.486496595,1.575543682,2
1.61696E+18,-65.84872998,7.032376425,-3.539946397,0.139810622,2
1.61696E+18,-65.8387981,5.785246951,-2.657971839,-1.355130415,2
1.61696E+18,-65.82886499,4.030339804,-2.00420924,-2.097131854,2
1.61696E+18,-65.81893311,1.310382341,-1.79749132,-1.906781424,2
1.61696E+18,-65.80900024,-1.464673908,-2.083314341,-1.222434301,2
1.61696E+18,-65.79906812,-3.912845644,-0.433083374,-1.20194637,2
1.61696E+18,-65.78913525,-15.48233183,5.443052639,-3.757575587,2
1.61696E+18,-65.77920313,-9.058950642,13.15918933,-5.520137632,2
1.61696E+18,-65.76927002,3.785401459,19.93068603,-4.734307573,2
1.61696E+18,-65.75933813,-19.55259506,37.79179048,-12.88297468,2
1.61696E+18,-65.74940601,-34.79982868,57.2169212,-15.69512819,2
1.61696E+18,-65.7394729,17.39673454,28.26180405,-4.23236752,2
1.61696E+18,-65.72954126,21.41506768,12.88055242,2.497827162,2
1.61696E+18,-65.71960815,-8.744573726,12.60982175,-0.841440595,2
1.61696E+18,-65.70967603,-17.04886569,13.1717355,-6.038153206,2
1.61696E+18,-65.69974292,2.489602647,14.48973066,-2.953239564,2
1.61696E+18,-65.68981104,5.756227777,14.83045198,2.267534598,2
1.61696E+18,-65.67987891,1.588302918,14.73215176,3.086982265,2
1.61696E+18,-65.66994629,-0.348354003,12.55825172,2.922615586,2
1.61696E+18,-65.66001416,0.14476766,12.02954232,1.279987495,2
1.61696E+18,-65.65008105,0.954709832,12.88974461,-1.798464549,2
1.61696E+18,-65.64014917,0.668110566,11.96434008,-3.712271633,2
1.61696E+18,-65.63021606,0.601102438,10.82729536,-4.608292545,2
1.61696E+18,-65.62028394,0.034380116,9.727990889,-5.011707633,2
1.61696E+18,-65.61035229,-1.303538175,7.510460386,-4.855523092,2
1.61696E+18,-65.60041919,-1.597167339,5.145373761,-4.901492232,2
1.61696E+18,-65.59048706,-0.79884327,2.869697358,-5.153500369,2
1.61696E+18,-65.58055396,-0.112891051,0.643200873,-5.005488905,2
1.61696E+18,-65.57062207,0.242966168,-1.728177545,-4.516134193,2
1.61696E+18,-65.56068921,0.382438644,-4.13466001,-3.818699626,2
1.61696E+18,-65.55075684,0.234892459,-6.199941266,-2.941101383,2
1.61696E+18,-65.54082422,-0.141706226,-7.942489282,-1.6785417,2
1.61696E+18,-65.53089209,-0.274797623,-9.346787925,-0.234200386,2
1.61696E+18,-65.52095996,0.038968905,-9.96356607,1.605381479,2
1.61696E+18,-65.5110271,0.391242713,-10.10925231,3.258168268,2
1.61696E+18,-65.50109521,0.863964269,-10.04948027,4.243703153,2
1.61696E+18,-65.49116211,1.160892037,-9.596868601,4.610174705,2
1.61696E+18,-65.48123022,0.993054687,-8.62232448,4.46798128,2
1.61696E+18,-65.47129712,0.862338787,-7.426518951,3.971142934,2
1.61696E+18,-65.46136499,1.063124467,-6.15522125,3.466033604,2
1.61696E+18,-65.45143188,1.320970371,-4.820369653,3.327338542,2
1.61696E+18,-65.4415,1.656627974,-3.445690489,3.361743208,2
1.61696E+18,-65.43156787,1.711753649,-2.185963983,3.176525173,2
1.61696E+18,-65.42163525,1.444527777,-0.874728825,2.699505042,2
1.61696E+18,-65.41170313,1.171139875,0.357137029,2.191126335,2
1.61696E+18,-65.40177002,0.710764589,1.744205136,1.639401822,2
1.61696E+18,-65.39183813,0.437528626,3.477286819,0.925949309,2
1.61696E+18,-65.38190503,0.291544358,5.416663229,0.161459997,2
1.61696E+18,-65.37197314,-0.298564429,6.819829068,-0.23776743,2
1.61696E+18,-65.36204004,-0.512616929,6.850375013,-0.721601917,2
1.61696E+18,-65.35210815,-0.57443538,5.25662289,-1.316136083,2
1.61696E+18,-65.34217603,-1.015155532,3.396964159,-1.847239394,2
1.61696E+18,-65.33224292,-1.525712022,1.967248167,-2.100157631,2
1.61696E+18,-65.32231104,-1.052366196,0.82130177,-2.403940233,2
1.61696E+18,-65.31237817,-0.238868377,-0.302881708,-2.810136915,2
1.61696E+18,-65.3024458,0.424973096,-1.636774688,-2.936832327,2
1.61696E+18,-65.29251318,0.845316852,-2.945594018,-2.669220086,2
1.61696E+18,-65.28258105,0.97136666,-3.920926074,-2.600886262,2
1.61696E+18,-65.27264917,0.275246682,-4.361835027,-2.321353866,2
1.61696E+18,-65.26271631,-1.165159047,-4.188154285,-1.831461979,2
1.61696E+18,-65.25278418,-2.934082444,-3.411226494,-1.413595463,2
1.61696E+18,-65.24285107,-4.19564201,-2.034386936,-0.920492651,2
1.61696E+18,-65.23291919,-4.80522586,-0.347170347,-0.20411972,2
1.61696E+18,-65.22298608,-5.66810175,1.227878246,0.163714206,2
1.61696E+18,-65.21305396,-6.351250018,2.344576921,0.305993994,2
1.61696E+18,-65.20312085,-6.897683877,3.009358927,0.235415753,2
1.61696E+18,-65.19318896,-7.860861969,3.105244482,0.011971885,2
1.61696E+18,-65.18325684,-9.547394668,2.674378199,0.087970837,2
1.61696E+18,-65.17332397,-10.01509401,1.225604456,0.341072614,2
1.61696E+18,-65.16339209,-8.819802278,-0.911195976,1.381865861,2
1.61696E+18,-65.15345557,-6.573759966,-3.12718568,3.601025135,2
1.61696E+18,-65.14352393,-2.593141347,-5.935211887,5.52766569,2
1.61696E+18,-65.13359058,2.036840759,-9.363303006,6.055434011,2
1.61696E+18,-65.12365894,7.169960018,-12.26012686,4.723202242,2
1.61696E+18,-65.11372583,7.667386393,-13.40839088,1.523858503,2
1.61696E+18,-65.1037937,-0.776172881,-11.8510948,-2.661142286,2
1.61696E+18,-65.09386182,-9.367758232,-8.815285678,-4.759819031,2
1.61696E+18,-65.08392871,-6.096259358,-5.192849213,-0.896272548,2
1.61696E+18,-65.07399658,4.472066211,-0.550121607,5.318554737,2
1.61696E+18,-65.06406348,14.96973185,3.976827994,10.0683007,2
1.61696E+18,-65.05413159,-2.929126575,5.232794855,10.43789156,2
1.61696E+18,-65.04419873,-8.599844938,6.332157195,0.870225083,2
1.61696E+18,-65.0342666,7.088319846,8.024545634,-5.467193393,2
1.61696E+18,-65.02433496,7.996632376,12.54379884,-6.451629962,2
1.61696E+18,-65.01440186,5.416354017,15.65018898,-7.918481799,2
1.61696E+18,-65.00446973,-4.032935081,17.43095596,-9.067716132,2
1.61696E+18,-64.99453687,-18.71510262,23.68175005,-8.034014304,2
1.61696E+18,-64.98460474,-8.729840268,31.16722154,-4.084981787,2
1.61696E+18,-64.97467163,9.192641319,28.1353065,-1.056014489,2
1.61696E+18,-64.96473975,-0.71386314,24.34927404,-0.20793694,2
1.61696E+18,-64.95480664,-8.471787297,22.40243037,-0.433213722,2
1.61696E+18,-64.94487451,-5.063436652,18.38928077,-0.240488964,2
1.61696E+18,-64.93494263,-5.866005664,15.17251535,-1.036283076,2
1.61696E+18,-64.92500977,-9.406337846,13.75580614,-3.547788927,2
1.61696E+18,-64.91507764,-10.41466032,14.89881064,-6.092541214,2
1.61696E+18,-64.90514478,-9.250131385,16.94082617,-7.229538581,2
1.61696E+18,-64.89521289,-4.89320225,13.3340058,-4.472392959,2
1.61696E+18,-64.88527979,-0.967010729,7.070180963,-3.323239583,2
1.61696E+18,-64.87534766,-4.278379915,4.249877458,-6.776828716,2
1.61696E+18,-64.86541577,-18.95553752,6.276737506,-12.75102704,2
1.61696E+18,-64.85548267,-27.07106048,8.396175299,-8.691844007,2
1.61696E+18,-64.84555054,-12.43022623,5.31267737,2.233813822,2
1.61696E+18,-64.83561768,14.03755738,-1.100661733,4.853799922,2
1.61696E+18,-64.82568555,23.8016238,-7.533132236,5.427746349,2
1.61696E+18,-64.81575244,23.03719308,-10.15471993,1.463902924,2
1.61696E+18,-64.80582056,14.49060393,-9.283453809,-4.431429957,2
1.61696E+18,-64.7958877,8.793627388,-6.241467455,-7.873442634,2
1.61696E+18,-64.78595581,18.44928428,-2.920806783,-5.574750097,2
1.61696E+18,-64.77602393,18.4355597,2.592221894,-2.086773687,2
1.61696E+18,-64.76609082,8.926386338,10.20859297,0.686581604,2
1.61696E+18,-64.75615869,11.36467322,12.3662959,1.332951462,2
1.61696E+18,-64.74622583,9.775793674,6.905347543,0.747388685,2
1.61696E+18,-64.7362937,-8.639598271,4.892785486,0.021157647,2
1.61696E+18,-64.7263606,12.63207567,4.490116247,-0.603025953,2
1.61696E+18,-64.71642871,23.36282088,-0.974756302,0.871849908,2
1.61696E+18,-64.70649561,16.76207704,-7.210903439,6.303252588,2
1.61696E+18,-64.69656348,21.01215441,-14.64402106,9.740126148,2
1.61696E+18,-64.68663184,27.04090149,-23.51074232,10.61718079,2
1.61696E+18,-64.67669873,32.45765415,-37.60913675,4.203552053,2
1.61696E+18,-64.6667666,41.8955363,-45.99872565,-9.684912211,2
1.61696E+18,-64.65683374,37.3993986,-32.77920198,-13.28596745,2
1.61696E+18,-64.64690186,21.5392552,-20.19628343,-8.803431574,2
1.61696E+18,-64.63696875,11.99102934,-15.67429934,-6.494820285,2
1.61696E+18,-64.62703662,10.84194348,-13.4717589,-4.726723986,2
1.61696E+18,-64.61710474,12.5285019,-11.39186051,-2.038065186,2
1.61696E+18,-64.60717163,11.42020046,-8.641226165,0.975408628,2
1.61696E+18,-64.5972395,9.461932892,-6.149535021,3.876858677,2
1.61696E+18,-64.58730664,8.10753839,-4.726541031,6.357821213,2
1.61696E+18,-64.57737451,6.43635699,-4.274397567,7.9988407,2
1.61696E+18,-64.56744141,5.156439345,-4.090058652,8.046072406,2
1.61696E+18,-64.55750977,4.193953326,-4.043155447,7.060306635,2
1.61696E+18,-64.5475769,4.327517747,-4.526345206,5.800679498,2
1.61696E+18,-64.53764478,6.352575714,-5.16159249,4.451106717,2
1.61696E+18,-64.52771289,7.046202706,-4.953386377,2.522891753,2
1.61696E+18,-64.51777979,5.755193174,-3.845606922,0.241377438,2
1.61696E+18,-64.50784766,5.982237842,-2.962105008,-1.928893156,2
1.61696E+18,-64.49791479,7.209006081,-1.73245683,-3.482525889,2
1.61696E+18,-64.48798267,8.030845611,0.001737199,-5.188674558,2
1.61696E+18,-64.47804956,5.393426146,1.663523579,-6.079115916,2
1.61696E+18,-64.46811768,-1.118597202,3.474025187,-5.139885685,2
1.61696E+18,-64.45818457,-7.352772747,3.58772054,-1.772362578,2
1.61696E+18,-64.44825269,-12.22545652,1.173570901,2.642282687,2
1.61696E+18,-64.4383208,-15.70515742,2.163819956,3.622448155,2
1.61696E+18,-64.4283877,-12.34093116,5.750755483,-3.533975798,2
1.61696E+18,-64.41845557,3.674584585,4.292632312,-10.04000984,2
1.61696E+18,-64.40852271,11.66665126,7.138207036,-9.668296591,2
1.61696E+18,-64.39859082,-24.43952189,23.14057864,-6.979833168,2
1.61696E+18,-64.38865771,-6.497441281,37.75158005,-4.084446657,2
1.61696E+18,-64.37872559,13.08640349,37.92871591,1.164927284,2
1.61696E+18,-64.36879272,-9.144896402,32.4762396,0.793857883,2
1.61696E+18,-64.3588606,-8.536112762,23.56193709,-1.678508382,2
1.61696E+18,-64.34892871,5.180833781,18.47532122,-4.738027178,2
1.61696E+18,-64.33899585,0.390813089,14.20300046,-5.475955376,2
1.61696E+18,-64.32906372,-5.894359652,12.20032325,-5.58974776,2
1.61696E+18,-64.31913062,-5.372983662,11.07958553,-3.162153533,2
1.61696E+18,-64.30919873,-2.980124649,8.247455979,-0.266347336,2
1.61696E+18,-64.29926587,-4.716404252,5.408419133,-0.445433152,2
1.61696E+18,-64.28933374,-4.460934576,4.469557735,-1.728091767,2
1.61696E+18,-64.27940161,-3.57135948,4.660753092,-2.498849199,2
1.61696E+18,-64.26946875,-3.12081936,6.287523688,-3.629910746,2
1.61696E+18,-64.25953662,-1.674971148,7.461856806,-3.333542365,2
1.61696E+18,-64.24960376,-0.904846607,7.241582655,-2.087869081,2
1.61696E+18,-64.23967163,-0.457100209,6.231003344,-0.756257051,2
1.61696E+18,-64.22973853,0.481640776,4.818939913,0.303334712,2
1.61696E+18,-64.21980688,1.318117904,3.076550302,0.962938146,2
1.61696E+18,-64.20987378,1.718328059,1.62995098,1.283931411,2
1.61696E+18,-64.19994165,2.114641207,0.362905676,1.343506905,2
1.61696E+18,-64.19000977,2.389140577,-0.876196559,1.204793723,2
1.61696E+18,-64.18007666,2.21374777,-1.985485835,1.006383905,2
1.61696E+18,-64.17014453,1.754617516,-3.106813339,0.811445854,2
1.61696E+18,-64.16021167,1.123956683,-4.382579125,0.665882076,2
1.61696E+18,-64.15028247,0.758903766,-5.632253023,0.655841451,2
1.61696E+18,-64.14034961,0.701565238,-6.660586601,0.73113167,2
1.61696E+18,-64.13041748,0.792001588,-7.337087686,0.847079916,2
1.61696E+18,-64.1204856,0.777615189,-7.652818354,0.995657051,2
1.61696E+18,-64.11055273,0.736936119,-7.484747268,1.056464279,2
1.61696E+18,-64.10062061,0.762829854,-7.031798333,1.196374269,2
1.61696E+18,-64.0906875,0.823940302,-6.350900474,1.303075233,2
1.61696E+18,-64.08075562,0.804675191,-5.761258757,1.258835256,2
1.61696E+18,-64.07082275,0.848109844,-5.326714078,1.136606322,2
1.61696E+18,-64.06089038,0.859784938,-5.003168353,1.015042135,2
1.61696E+18,-64.05095752,0.763867307,-4.565704572,0.728782623,2
1.61696E+18,-64.04102563,0.483070005,-3.887624109,0.227116126,2
1.61696E+18,-64.03109351,0.110090022,-2.957477348,-0.481775216,2
1.61696E+18,-64.0211604,-0.472180874,-1.698770249,-1.231253275,2
1.61696E+18,-64.01122876,-1.900295861,-0.060416183,-1.660628734,2
1.61696E+18,-64.00129565,-3.122581401,1.663850911,-1.613282169,2
1.61696E+18,-63.99136377,-2.588074711,3.359908979,-1.392195386,2
1.61696E+18,-63.98143066,-0.520471735,4.591293187,-0.819143423,2
1.61696E+18,-63.97149854,2.807523518,5.16701393,0.324444136,2
1.61696E+18,-63.96156543,4.210430414,5.587822345,2.176994495,2
1.61696E+18,-63.95163354,2.703417247,6.474105413,3.205226367,2
1.61696E+18,-63.94170142,0.120309802,7.435276258,3.954407488,2
1.61696E+18,-63.93176855,-2.573744573,7.658993243,5.472369335,2
1.61696E+18,-63.92183667,-3.742464527,7.017056691,6.026304947,2
1.61696E+18,-63.91190356,-2.424127427,4.746472058,4.651801724,2
1.61696E+18,-63.90197144,-0.801933564,1.618157666,2.747366863,2
1.61696E+18,-63.89203857,-0.342226935,-0.908609467,1.085281939,2
1.61696E+18,-63.88210669,-0.575215096,-2.834613185,0.07637626,2
1.61696E+18,-63.87217358,-1.029616019,-4.385113027,-0.455615524,2
1.61696E+18,-63.8622417,-1.631192504,-5.332748682,-0.972705945,2
1.61696E+18,-63.85230957,-1.8695617,-5.511254653,-1.540971112,2
1.61696E+18,-63.84237646,-1.634271766,-5.062317292,-2.344652762,2
1.61696E+18,-63.83244458,-1.397930861,-4.061144108,-3.296345438,2
1.61696E+18,-63.82251172,-2.837670235,-2.469084759,-3.608878479,2
1.61696E+18,-63.81257935,-5.333400424,-1.078752683,-3.700953244,2
1.61696E+18,-63.80264648,-7.049897469,-0.22224399,-3.623703708,2
1.61696E+18,-63.7927146,-6.923643663,-0.282727977,-2.792483185,2
1.61696E+18,-63.78278271,-5.277746342,-1.175811958,-1.469751358,2
1.61696E+18,-63.77284961,-4.24190458,-2.762492536,0.255898569,2
1.61696E+18,-63.76291772,-4.37321333,-5.335308888,1.86432263,2
1.61696E+18,-63.75298462,-4.675853046,-9.013788142,3.177929487,2
1.61696E+18,-63.74305249,-3.923996275,-11.68116845,5.043797301,2
1.61696E+18,-63.73311963,2.571860367,-12.8823621,5.748616718,2
1.61696E+18,-63.7231875,19.9931761,-15.1189486,2.774613182,2
1.61696E+18,-63.71325439,22.38100881,-16.32091616,-0.634075317,2
1.61696E+18,-63.70332251,-8.543865276,-13.15138713,-4.988860426,2
1.61696E+18,-63.69339038,-24.62639353,-6.410390774,-4.925204823,2
1.61696E+18,-63.68345752,-9.509803481,1.172836157,2.905294156,2
1.61696E+18,-63.67352563,-18.48931935,10.3063905,5.083491013,2
1.61696E+18,-63.66359253,-10.03689434,34.77077093,-3.943546487,2
1.61696E+18,-63.65366064,7.530745633,52.02005398,-11.93542728,2
1.61696E+18,-63.64372778,1.598633466,34.37825279,-4.276153763,2
1.61696E+18,-63.63379565,-7.045238829,24.99122638,4.108247512,2
1.61696E+18,-63.62386255,0.996982747,27.6163399,5.178550639,2
1.61696E+18,-63.61393066,2.495678752,26.24440156,1.899439829,2
1.61696E+18,-63.60399854,1.434660609,22.83222464,0.254218214,2
1.61696E+18,-63.59406543,-1.510382936,20.77368584,-1.69777247,2
1.61696E+18,-63.58413354,-9.176513191,19.63601218,-4.441914818,2
1.61696E+18,-63.57420068,-11.45983339,21.88889048,-6.300332316,2
1.61696E+18,-63.56426831,-7.15441349,21.97641445,-5.345951863,2
1.61696E+18,-63.55433545,-4.543692939,14.5910283,-4.538623088,2
1.61696E+18,-63.54440381,-7.328226919,6.477373475,-8.858975182,2
1.61696E+18,-63.53447168,-8.521147248,2.118667978,-16.68193208,2
1.61696E+18,-63.52453857,-10.82241811,-2.480529114,-17.89281009,2
1.61696E+18,-63.51460669,-15.85511067,-6.844754835,-17.13923862,2
1.61696E+18,-63.50467358,-5.471271018,-9.180039612,-6.591379209,2
1.61696E+18,-63.49474146,12.78509298,-11.62869475,5.194546665,2
1.61696E+18,-63.48480859,19.35351158,-13.95455177,10.67950368,2
1.61696E+18,-63.47487646,18.75132194,-11.04270571,11.34999237,2
1.61696E+18,-63.46494336,13.76927236,-6.397932859,6.436416611,2
1.61696E+18,-63.45501147,8.318818503,-0.867421132,0.333915728,2
1.61696E+18,-63.44507959,11.26867719,3.905883403,-2.320851616,2
1.61696E+18,-63.43514673,15.18289179,8.877907846,-1.957125125,2
1.61696E+18,-63.4252146,13.65200908,13.37393682,-0.492850153,2
1.61696E+18,-63.41528174,13.47203363,13.76118959,-0.15189152,2
1.61696E+18,-63.40534961,11.94375088,8.514432845,-0.434572443,2
1.61696E+18,-63.39541675,6.041306117,4.431561474,0.10422376,2
1.61696E+18,-63.38548462,5.924998536,2.255211123,2.720002471,2
1.61696E+18,-63.37555151,8.749126567,-0.10064824,3.277236249,2
1.61696E+18,-63.36561963,11.61751284,-0.927329657,0.081476798,2
1.61696E+18,-63.3556875,13.86401517,-4.472745426,-1.353771255,2
1.61696E+18,-63.34575439,20.65599353,-11.05781326,0.857211361,2
1.61696E+18,-63.33582251,28.1818134,-17.87234831,5.144048065,2
1.61696E+18,-63.3258894,32.73973973,-24.66676062,5.794486488,2
1.61696E+18,-63.31595752,40.50476233,-31.11119628,0.021218218,2
1.61696E+18,-63.30602466,39.32088572,-32.32569015,-5.133204015,2
1.61696E+18,-63.29609277,27.91614352,-28.0891807,-5.201460974,2
1.61696E+18,-63.28616064,18.94847416,-24.47497898,-3.183875536,2
1.61696E+18,-63.27622754,14.10945475,-20.06362268,-1.038839921,2
1.61696E+18,-63.26629565,14.89491071,-14.90117328,0.131962758,2
1.61696E+18,-63.25636255,14.26240776,-11.38129819,1.449359435,2
1.61696E+18,-63.24643042,11.13128182,-9.10308672,3.170041071,2
1.61696E+18,-63.23649756,7.817023997,-7.13153881,4.998513221,2
1.61696E+18,-63.22656543,5.777132618,-5.447992434,6.68370678,2
1.61696E+18,-63.21663232,2.855529716,-4.019585186,8.257415648,2
1.61696E+18,-63.20670068,1.427100257,-4.160075607,8.98819076,2
1.61696E+18,-63.19676855,2.255824871,-4.698820665,9.317192412,2
1.61696E+18,-63.18683569,6.30205724,-3.769854054,8.96389803,2
1.61696E+18,-63.17690356,9.763466692,-0.968119056,7.200510055,2
1.61696E+18,-63.1669707,11.43940201,1.6151579,3.416275009,2
1.61696E+18,-63.15703857,8.945970744,2.398295067,-0.094711105,2
1.61696E+18,-63.14710254,6.161606567,3.564921264,-3.686155195,2
1.61696E+18,-63.13717065,4.104441398,6.595044161,-7.295439917,2
1.61696E+18,-63.12723779,3.19360198,9.145134302,-9.360750984,2
1.61696E+18,-63.11730566,0.056222822,7.677580455,-7.374441558,2
1.61696E+18,-63.10737354,-7.422213363,5.429786915,-4.262677026,2
1.61696E+18,-63.09744067,-17.75874882,8.173700423,-5.566144766,2
1.61696E+18,-63.08750854,-1.088572651,8.894648553,-8.16597772,2
1.61696E+18,-63.07757544,14.97479381,9.54220879,-10.24440312,2
1.61696E+18,-63.06764355,-4.399751501,18.66867405,-14.19869253,2
1.61696E+18,-63.05771069,-23.25759758,34.56845154,-16.36480674,2
1.61696E+18,-63.04777832,5.531752082,33.98246601,-12.56268941,2
1.61696E+18,-63.03784546,-5.763117537,30.99048082,-6.081432376,2
1.61696E+18,-63.02791382,-5.751633435,25.29998721,0.717779729,2
1.61696E+18,-63.01798169,5.970410626,21.92753205,3.036747284,2
1.61696E+18,-63.00804858,-0.112014268,20.86172653,1.903197428,2
1.61696E+18,-62.9981167,-5.174328637,24.1528139,2.346092294,2
1.61696E+18,-62.98818359,-2.383692249,21.25443171,5.331549244,2
1.61696E+18,-62.97825146,-1.63123459,16.23651704,5.994374855,2
1.61696E+18,-62.9683186,-2.874269488,14.15554664,3.961847867,2
1.61696E+18,-62.95838647,-2.519053198,12.76152623,0.089871702,2
1.61696E+18,-62.94845337,-0.528067889,10.29401383,-3.293622151,2
1.61696E+18,-62.93852148,0.916309374,7.679536265,-4.835658116,2
1.61696E+18,-62.92858936,1.313901163,4.659546639,-5.106819282,2
1.61696E+18,-62.91865649,1.579758085,1.559833488,-4.952285138,2
1.61696E+18,-62.90872461,1.244523237,-1.474845758,-4.541058499,2
1.61696E+18,-62.89879175,0.491871079,-4.470412306,-4.250113605,2
1.61696E+18,-62.88885962,-0.102579281,-6.782922356,-3.850011002,2
1.61696E+18,-62.87892676,-0.453348748,-8.549874746,-3.075289489,2
1.61696E+18,-62.86899463,-0.792599919,-10.21941832,-1.71534276,2
1.61696E+18,-62.8590625,-1.282559099,-11.41272209,-0.116095107,2
1.61696E+18,-62.84912964,-1.960120507,-12.04667583,1.678681255,2
1.61696E+18,-62.83919751,-1.976830235,-12.76615681,3.509078381,2
1.61696E+18,-62.8292644,-1.795366583,-13.25614514,4.900202776,2
1.61696E+18,-62.81933252,-1.207525193,-13.28630881,5.647980168,2
1.61696E+18,-62.80939966,0.022499453,-12.79771164,5.564218182,2
1.61696E+18,-62.79946753,1.3033295,-11.47906533,4.84953262,2
1.61696E+18,-62.78953467,1.851309419,-9.205416629,3.760943018,2
1.61696E+18,-62.77960278,1.729914744,-7.475559168,3.00429989,2
1.61696E+18,-62.76967065,1.772609392,-6.218083072,2.335232462,2
1.61696E+18,-62.75973755,1.371134039,-5.146400181,1.55097652,2
1.61696E+18,-62.74980566,0.258313009,-3.588400924,0.556273846,2
1.61696E+18,-62.73987256,-0.897432678,-1.253752692,-0.568278757,2
1.61696E+18,-62.72994043,-1.968175073,1.564406202,-1.668087088,2
1.61696E+18,-62.72000757,-4.96381717,5.744822586,-3.247891788,2
1.61696E+18,-62.71007544,-8.104981691,11.42812775,-5.362777325,2
1.61696E+18,-62.70014331,-3.691166886,13.39524732,-5.32895572,2
1.61696E+18,-62.69021045,0.967073858,12.71604224,-3.716715169,2
1.61696E+18,-62.68027856,5.985611702,8.686457638,-0.880738002,2
1.61696E+18,-62.6703457,7.769630962,2.904956887,3.691580143,2
1.61696E+18,-62.66041357,6.488443151,-0.285673383,6.752476365,2
1.61696E+18,-62.65048071,5.058735342,-0.828543412,7.8014196,2
1.61696E+18,-62.64054858,4.728896654,0.025261867,6.564767681,2
1.61696E+18,-62.63061572,4.200331045,0.032288989,4.084814614,2
1.61696E+18,-62.62068359,1.734201628,-0.218369195,2.444108431,2
1.61696E+18,-62.61075146,-1.512263343,-0.37960722,1.412032744,2
1.61696E+18,-62.6008186,-4.082839807,-1.158016189,0.589207417,2
1.61696E+18,-62.59088647,-15.44622474,-1.078881278,0.353099006,2
1.61696E+18,-62.58095337,-12.38590661,0.039855625,-0.869724879,2
1.61696E+18,-62.57102173,-4.832127896,-1.316062725,-2.387103811,2
1.61696E+18,-62.56108862,-5.006054722,-1.641639664,-3.361841993,2
1.61696E+18,-62.55115649,-6.414470152,-0.690820702,-3.920271994,2
1.61696E+18,-62.54122363,-7.812645928,-0.056984455,-3.765667123,2
1.61696E+18,-62.53129175,-8.634414731,-0.027962943,-2.659693548,2
1.61696E+18,-62.52135962,-7.804155163,-0.823636935,-0.800728207,2
1.61696E+18,-62.51142651,-5.622374603,-2.435935939,1.311187082,2
1.61696E+18,-62.50149463,-2.659506794,-5.040899826,3.105158557,2
1.61696E+18,-62.49156152,-0.140996909,-8.198510454,4.308123895,2
1.61696E+18,-62.48162939,1.378960495,-10.06874143,4.402395001,2
1.61696E+18,-62.47169653,4.552489409,-10.20313354,2.88704363,2
1.61696E+18,-62.4617644,5.88855535,-9.552581715,1.879092914,2
1.61696E+18,-62.4518313,6.331819342,-7.955200295,2.152744435,2
1.61696E+18,-62.44189966,8.29634539,-4.719374792,2.775488211,2
1.61696E+18,-62.43196753,2.39097393,-0.024134909,3.415490873,2
1.61696E+18,-62.42203467,-7.705348167,3.088440062,2.234587145,2
1.61696E+18,-62.41210254,-3.568287233,0.549603137,-0.802281282,2
1.61696E+18,-62.40216968,7.134572479,1.090313942,-0.473227899,2
1.61696E+18,-62.39223755,4.534504255,9.218205968,-4.453374078,2
1.61696E+18,-62.38230469,-30.24342911,29.7157438,-16.73250491,2
1.61696E+18,-62.37237256,-16.87225006,49.33859488,-24.37179217,2
1.61696E+18,-62.36244043,27.53896324,28.30641008,-4.565737597,2
1.61696E+18,-62.35250757,1.900303167,25.64565241,3.397675523,2
1.61696E+18,-62.34257568,-5.427929889,25.28568045,3.524419158,2
1.61696E+18,-62.33264258,-2.321691574,24.56290277,2.736298357,2
1.61696E+18,-62.32271069,-1.111254292,22.82394313,1.94659847,2
1.61696E+18,-62.31277759,-1.787424684,19.7793276,-0.244404384,2
1.61696E+18,-62.30284546,-6.036715282,17.34914862,-4.66692009,2
1.61696E+18,-62.2929126,-7.774708119,17.0542772,-6.296071152,2
1.61696E+18,-62.28298071,-4.74027145,15.62107511,-6.106293845,2
1.61696E+18,-62.27304858,-0.634184038,9.881080679,-6.28791941,2
1.61696E+18,-62.26311548,-2.612810509,4.28053154,-9.057011198,2
1.61696E+18,-62.25318359,-11.98085633,3.618243689,-15.05731077,2
1.61696E+18,-62.24325049,-16.89627391,2.993254179,-16.88639316,2
1.61696E+18,-62.2333186,-15.23111484,2.106501155,-9.206213917,2
1.61696E+18,-62.2233855,-2.853490904,1.839021016,0.765554749,2
1.61696E+18,-62.21345361,14.91211553,-2.978041997,5.371809358,2
1.61696E+18,-62.20352148,21.48061597,-10.53951536,10.26271268,2
1.61696E+18,-62.19358862,15.3894022,-10.78326216,9.823501766,2
1.61696E+18,-62.18365649,11.24247308,-8.00522777,4.289415103,2
1.61696E+18,-62.17372339,12.81314302,-3.508532437,-0.828508779,2
1.61696E+18,-62.1637915,21.51675111,-0.053325932,0.240031284,2
1.61696E+18,-62.15386279,20.87457432,2.997745646,2.763002239,2
1.61696E+18,-62.14393066,11.58485794,5.348330867,2.072455093,2
1.61696E+18,-62.1339978,6.746268742,2.647711726,0.459351203,2
1.61696E+18,-62.12406592,-4.736328265,0.279299756,0.210713419,2
1.61696E+18,-62.11413379,5.157819986,0.688275694,2.440189212,2
1.61696E+18,-62.10420068,15.17119667,-0.777799313,4.391879745,2
1.61696E+18,-62.09426904,18.7362062,-3.38317938,6.866150675,2
1.61696E+18,-62.08433594,17.25313973,-7.664098457,9.695841601,2
1.61696E+18,-62.07440381,20.70802065,-13.77570794,9.389223045,2
1.61696E+18,-62.06447095,25.20241414,-20.60418151,6.210297825,2
1.61696E+18,-62.05453882,26.46418647,-26.44200503,0.800453774,2
1.61696E+18,-62.04460571,29.31566428,-29.42412115,-3.253129689,2
1.61696E+18,-62.03467383,24.93440384,-27.49115168,-3.847347043,2
1.61696E+18,-62.0247417,17.46143176,-23.25676522,-4.288812753,2
1.61696E+18,-62.01480884,13.60070209,-20.15401081,-4.590638815,2
1.61696E+18,-62.00487671,10.55684059,-16.99966415,-2.621243406,2
1.61696E+18,-61.99494385,7.428073779,-12.74360595,1.16678241,2
1.61696E+18,-61.98501196,5.444495239,-8.759038305,4.67797866,2
1.61696E+18,-61.97507861,6.536953792,-5.812404423,7.046136655,2
1.61696E+18,-61.96514697,6.316462782,-4.296983493,8.657476458,2
1.61696E+18,-61.95521484,4.252082859,-3.284456555,9.681497434,2
1.61696E+18,-61.94528174,2.611058112,-2.827872479,9.879480258,2
1.61696E+18,-61.93534985,3.246840234,-3.533416118,8.746267086,2
1.61696E+18,-61.92541675,6.454993301,-4.894878074,6.614696956,2
1.61696E+18,-61.91548462,7.349249833,-5.581327722,4.247570935,2
1.61696E+18,-61.90555176,5.381142419,-5.395620441,2.022209007,2
1.61696E+18,-61.89561963,3.726246383,-5.510037094,-0.604303572,2
1.61696E+18,-61.88568677,4.453845495,-4.198282295,-2.93953954,2
1.61696E+18,-61.87575488,5.76155511,-1.526839565,-4.369867527,2
1.61696E+18,-61.865823,4.649135135,1.099593811,-4.974437349,2
1.61696E+18,-61.85588989,2.406712913,2.090475318,-4.8909647,2
1.61696E+18,-61.84595801,1.862461805,1.485194134,-3.839928876,2
1.61696E+18,-61.8360249,3.373461703,0.822021317,-1.480340556,2
1.61696E+18,-61.82609277,5.842046112,-0.72458444,0.662740563,2
1.61696E+18,-61.81615991,4.796619068,-1.734116872,2.175184085,2
1.61696E+18,-61.80622778,-14.66726282,1.306374275,5.339503417,2
1.61696E+18,-61.79629468,-15.40521001,12.60817106,5.537534757,2
1.61696E+18,-61.78636279,4.719103282,20.99963395,-3.104002957,2
1.61696E+18,-61.77643066,3.192546918,23.25837617,-9.430622977,2
1.61696E+18,-61.7664978,-8.96641615,31.22536276,-8.618456114,2
1.61696E+18,-61.75656592,-8.700508959,33.00464973,-7.089763615,2
1.61696E+18,-61.74663306,6.008945816,24.4500012,-6.173141522,2
1.61696E+18,-61.73670093,-0.747127988,18.52586249,-8.172813703,2
1.61696E+18,-61.72676782,-22.78758353,21.23813057,-11.56222642,2
1.61696E+18,-61.71683594,-30.30796033,28.54998503,-11.34251867,2
1.61696E+18,-61.70690381,15.80905151,18.7517954,-0.455599742,2
1.61696E+18,-61.6969707,17.85373363,11.27774897,3.797621474,2
1.61696E+18,-61.68703882,-0.312776494,11.24106321,1.16330056,2
1.61696E+18,-61.67710571,-5.667901844,9.250506064,-0.117727969,2
1.61696E+18,-61.66717358,-0.923925694,7.059349188,-2.3772666,2
1.61696E+18,-61.65724072,3.151837891,5.902268233,-4.166635404,2
1.61696E+18,-61.64730859,1.801258856,4.023942212,-4.634927746,2
1.61696E+18,-61.63737573,-2.446459963,1.984026284,-5.539058021,2
1.61696E+18,-61.62744409,-4.535880804,0.319729967,-6.089739016,2
1.61696E+18,-61.61751172,-2.406588702,-1.445593945,-5.12433448,2
1.61696E+18,-61.60757886,-0.248514304,-3.440514547,-3.081555856,2
1.61696E+18,-61.59764697,1.159370527,-4.928652333,-0.585194674,2
1.61696E+18,-61.58771387,1.245996086,-5.761963691,1.421569657,2
1.61696E+18,-61.57778174,1.111709123,-6.40799891,2.703264102,2
1.61696E+18,-61.56784888,0.547180293,-6.780579593,3.605544951,2
1.61696E+18,-61.55791675,-0.370036806,-7.182064298,4.42355937,2
1.61696E+18,-61.54798462,-0.887169204,-7.529540934,4.906293787,2
1.61696E+18,-61.53805176,-0.730350749,-7.400808171,4.90126193,2
1.61696E+18,-61.52811987,-0.030452412,-7.306506085,4.370400611,2
1.61696E+18,-61.51818677,1.041554879,-7.12548667,3.851844355,2
1.61696E+18,-61.50825488,1.556268489,-6.484107752,3.303169731,2
1.61696E+18,-61.49832202,1.428172854,-5.40106877,2.540064422,2
1.61696E+18,-61.48838989,0.821615659,-3.903037366,1.639718048,2
1.61696E+18,-61.47845679,0.008197372,-2.191331648,0.762125359,2
1.61696E+18,-61.4685249,-0.41638183,-0.126596335,-0.210093534,2
1.61696E+18,-61.45859277,-0.444029679,2.442116088,-1.364554369,2
1.61696E+18,-61.44865967,-1.030775126,5.633177736,-2.599156954,2
1.61696E+18,-61.43872778,-6.10353081,10.20212582,-4.015823203,2
1.61696E+18,-61.42879468,-7.892740624,10.9735556,-5.462559888,2
1.61696E+18,-61.41886279,-3.575233983,5.927535946,-5.044976281,2
1.61696E+18,-61.40892969,-0.622460867,0.642062809,-3.744654731,2
1.61696E+18,-61.3989978,1.536713893,-2.376128243,-2.283410651,2
1.61696E+18,-61.38906567,3.059941697,-3.493461125,-1.361668146,2
1.61696E+18,-61.37913306,3.173508455,-3.942535264,-0.655217474,2
1.61696E+18,-61.36920068,2.506698743,-3.643497957,0.144336282,2
1.61696E+18,-61.35926782,1.099076509,-2.76798295,0.858497675,2
1.61696E+18,-61.34933594,0.172894561,-1.637085654,1.680715245,2
1.61696E+18,-61.33940283,0.340626624,-0.463508323,2.620026432,2
1.61696E+18,-61.3294707,0.560227991,0.07059154,3.010684915,2
1.61696E+18,-61.31953784,0.452318272,0.172137605,2.665059459,2
1.61696E+18,-61.30960571,-0.201301192,0.099475689,2.007813548,2
1.61696E+18,-61.29967383,-1.250484045,0.035438393,1.418516991,2
1.61696E+18,-61.28974097,-2.43612357,0.127094933,1.068716734,2
1.61696E+18,-61.27980884,-3.646595923,0.270433144,0.798434836,2
1.61696E+18,-61.26987573,-4.379534935,0.21523908,0.468658399,2
1.61696E+18,-61.25994385,-4.064617921,-0.127429279,0.039750411,2
1.61696E+18,-61.25001099,-3.151782946,-0.351892114,-0.561395866,2
1.61696E+18,-61.24007886,-2.915222261,-0.341974532,-1.164148116,2
1.61696E+18,-61.23014575,-3.441820369,-0.206139828,-1.747700284,2
1.61696E+18,-61.22021387,-4.766931493,-0.084286887,-2.900491432,2
1.61696E+18,-61.21028174,-4.545532722,-0.523593081,-4.535201589,2
1.61696E+18,-61.20034863,-6.051116148,-1.844927609,-4.160964664,2
1.61696E+18,-61.19041699,-9.643924367,-3.606467911,-1.655344949,2
1.61696E+18,-61.18048389,-8.098521556,-5.906037815,0.922842283,2
1.61696E+18,-61.17055176,-1.993216575,-8.575656837,2.020854962,2
1.61696E+18,-61.1606189,3.101354196,-10.31201243,1.86701903,2
1.61696E+18,-61.15068628,2.185003029,-9.755389184,1.06923842,2
1.61696E+18,-61.14075391,-3.49000134,-7.022619001,0.093224227,2
1.61696E+18,-61.13082129,-9.386395128,-2.488631171,-0.612533055,2
1.61696E+18,-61.1208894,-7.308381232,1.731767679,1.36851655,2
1.61696E+18,-61.1109563,0.594555792,4.043141418,4.932260003,2
1.61696E+18,-61.10102441,5.653756414,3.769146782,7.262132691,2
1.61696E+18,-61.09109131,6.163013511,2.222109063,7.797735943,2
1.61696E+18,-61.08115918,3.368947441,0.686301179,6.465880606,2
1.61696E+18,-61.07122607,4.683675702,-1.326564245,3.594160802,2
1.61696E+18,-61.06129419,6.931701882,-1.513936829,1.612251072,2
1.61696E+18,-61.05136206,2.57846371,0.823651548,-1.989055218,2
1.61696E+18,-61.04142896,1.959092333,3.519910156,-5.118651174,2
1.61696E+18,-61.03149707,2.96186097,8.869588346,-5.54528318,2
1.61696E+18,-61.02156421,-1.370444304,15.98290469,-7.597830042,2
1.61696E+18,-61.01163208,-5.487191056,22.56197445,-10.17226727,2
1.61696E+18,-61.00169922,-6.990766065,25.9472774,-8.680386793,2
1.61696E+18,-60.99176733,-6.199238086,27.06733824,-4.978461197,2
1.61696E+18,-60.98183545,-6.350160469,25.3712451,-3.797808521,2
1.61696E+18,-60.97190234,-4.402021492,22.30485964,-4.698666351,2
1.61696E+18,-60.96197021,-3.240547271,20.42936504,-4.983239664,2
1.61696E+18,-60.95203711,-2.794163101,18.60377458,-4.293023649,2
1.61696E+18,-60.94210522,-3.414167223,16.48829634,-3.093420189,2
1.61696E+18,-60.93217212,-3.869519712,14.53388778,-1.87916481,2
1.61696E+18,-60.92223999,-5.457339523,12.91386081,-0.76849957,2
1.61696E+18,-60.91230737,-9.181175338,11.40907701,-0.032371699,2
1.61696E+18,-60.90237524,-11.86920446,8.137443115,0.171539054,2
1.61696E+18,-60.89244312,-7.962396929,4.201124825,-0.602042349,2
1.61696E+18,-60.8825105,0.163723412,1.768502541,-4.636505663,2
1.61696E+18,-60.87257837,-2.003406691,1.373862003,-11.62856264,2
1.61696E+18,-60.86264526,-18.20532238,5.340599396,-17.95623539,2
1.61696E+18,-60.85271338,-26.10465173,5.750379051,-12.66006375,2
1.61696E+18,-60.84278027,-14.44777718,0.962216554,-2.949997222,2
1.61696E+18,-60.83284814,13.66573249,-4.727845099,0.306701558,2
1.61696E+18,-60.82291626,31.43261318,-11.97353928,4.636854038,2
1.61696E+18,-60.81298315,29.3966533,-14.32487094,6.133488726,2
1.61696E+18,-60.80305103,12.97262981,-9.695227268,3.239311592,2
1.61696E+18,-60.79311792,5.672602569,-5.984767653,0.95685868,2
1.61696E+18,-60.78318604,14.82877557,-2.237796462,1.356233992,2
1.61696E+18,-60.77325317,19.82634654,0.703437607,2.814057304,2
1.61696E+18,-60.76332129,10.45900098,5.336134233,3.823158358,2
1.61696E+18,-60.75338843,4.273629505,7.733966943,0.295708455,2
1.61696E+18,-60.7434563,4.724202943,0.967965911,-2.268410796,2
1.61696E+18,-60.73352417,-4.077913456,-0.280534851,1.522301921,2
1.61696E+18,-60.72359131,11.29726616,1.127156941,3.832515093,2
1.61696E+18,-60.71365918,16.59214951,-1.866286624,4.207426848,2
1.61696E+18,-60.70372607,13.08391811,-5.449663582,7.01908089,2
1.61696E+18,-60.69379419,16.07472138,-9.280718831,8.030246476,2
1.61696E+18,-60.68386108,16.86383763,-14.23886906,6.795522895,2
1.61696E+18,-60.67392896,15.71403397,-19.46404117,2.616148713,2
1.61696E+18,-60.66399731,19.46627989,-24.76088267,-0.840884423,2
1.61696E+18,-60.65406421,24.96480365,-26.78588861,-0.927124052,2
1.61696E+18,-60.64413208,22.73343109,-23.65716038,0.574444586,2
1.61696E+18,-60.63419946,17.35249442,-18.84405984,0.715382458,2
1.61696E+18,-60.62426733,14.50059458,-15.83665731,0.506035213,2
1.61696E+18,-60.61433423,12.60345982,-13.69287769,0.990429818,2
1.61696E+18,-60.60440234,11.25986027,-11.5277069,1.829247079,2
1.61696E+18,-60.59446924,9.044941405,-9.640078213,2.805435021,2
1.61696E+18,-60.58453711,6.967714276,-8.597912508,3.626175358,2
1.61696E+18,-60.57460522,6.508742427,-8.501531863,4.162694265,2
1.61696E+18,-60.56467212,5.038749954,-8.610064134,4.352808256,2
1.61696E+18,-60.55474023,3.241939017,-8.443511636,4.469623786,2
1.61696E+18,-60.54480713,1.282767189,-8.588898012,4.175912935,2
1.61696E+18,-60.53487524,1.493234817,-9.050634064,2.790067941,2
1.61696E+18,-60.52494238,6.050422321,-8.590530581,1.27857003,2
1.61696E+18,-60.51501025,9.177636642,-7.13070119,0.677424045,2
1.61696E+18,-60.50507813,8.4619118,-5.27091445,0.813301711,2
1.61696E+18,-60.49514526,4.673880577,-3.621971769,1.266365943,2
1.61696E+18,-60.48521313,0.115350426,-2.765797423,1.873820234,2
1.61696E+18,-60.47528027,-3.560796001,-2.104953926,2.038022808,2
1.61696E+18,-60.46534814,-4.99741315,-0.62857029,0.995991398,2
1.61696E+18,-60.45541504,-4.234312809,0.796926623,-0.529247746,2
1.61696E+18,-60.44548315,-4.507320772,2.474711952,-1.313477092,2
1.61696E+18,-60.43555005,-5.73314267,5.490975835,-1.875101945,2
1.61696E+18,-60.42561816,-7.710346414,10.63462292,-5.844460187,2
1.61696E+18,-60.41568628,-1.610651821,13.9562878,-9.688446814,2
1.61696E+18,-60.40575317,9.896951618,19.77609636,-11.76015723,2
1.61696E+18,-60.39582104,-17.71003009,41.70872778,-15.97519133,2
1.61696E+18,-60.38588843,-39.18251302,56.11048205,-8.375546353,2
1.61696E+18,-60.3759563,27.71267145,23.75135491,4.355341574,2
1.61696E+18,-60.36602319,20.28249339,10.93583172,6.015287294,2
1.61696E+18,-60.35609131,-14.53964766,12.44299804,0.118760235,2
1.61696E+18,-60.34615918,-10.43458316,15.29728857,-5.189021764,2
1.61696E+18,-60.33622607,7.131114447,12.93404202,-2.758893635,2
1.61696E+18,-60.32629443,5.390511136,11.16770571,-0.034135494,2
1.61696E+18,-60.31636133,-1.331945938,10.9268184,1.40911861,2
1.61696E+18,-60.3064292,-1.942873604,11.23963347,2.230924823,2
1.61696E+18,-60.29649609,0.84652652,12.75699618,1.609685021,2
1.61696E+18,-60.28656421,-4.916125445,14.82538768,0.922984029,2
1.61696E+18,-60.27663135,-9.000223727,17.12314206,-1.833031128,2
1.61696E+18,-60.26669897,-0.855260446,12.85840839,-3.431040032,2
1.61696E+18,-60.25676709,5.195263289,5.367437718,-3.369732454,2
1.61696E+18,-60.24683423,4.761162262,1.179565173,-3.967705069,2
1.61696E+18,-60.2369021,2.473231358,-1.77486214,-5.003244925,2
1.61696E+18,-60.22696924,0.280699102,-4.325733202,-5.393607933,2
1.61696E+18,-60.21703711,-0.323946561,-6.032191083,-5.3297986,2
1.61696E+18,-60.207104,0.118384533,-7.399014858,-4.84626748,2
1.61696E+18,-60.19717236,0.395672366,-8.520582016,-3.925093715,2
1.61696E+18,-60.18724023,0.258667303,-9.307497532,-2.493703068,2
1.61696E+18,-60.17730713,0.152091427,-9.450592583,-0.661643123,2
1.61696E+18,-60.16737524,0.502679509,-9.174626939,0.763515206,2
1.61696E+18,-60.15744214,1.111535593,-8.465899408,1.751503768,2
1.61696E+18,-60.14751001,1.472934372,-7.710625815,2.478146602,2
1.61696E+18,-60.13757739,1.547791752,-7.279257428,3.157534057,2
1.61696E+18,-60.12764551,1.681635574,-6.237849849,3.496118361,2
1.61696E+18,-60.1177124,1.572997505,-4.807596097,3.447100648,2
1.61696E+18,-60.10778052,1.593511885,-2.822275097,2.982315729,2
1.61696E+18,-60.09784839,1.682109037,-0.095676881,2.058041368,2
1.61696E+18,-60.08791528,1.347331139,2.854987865,0.818659585,2
1.61696E+18,-60.0779834,0.810083042,5.684293006,-0.430190137,2
1.61696E+18,-60.06805029,-0.274323137,7.659604653,-1.185255494,2
1.61696E+18,-60.05811816,-2.127135947,7.63276107,-0.946392962,2
1.61696E+18,-60.04818506,-3.762183958,5.460123016,0.097358843,2
1.61696E+18,-60.03825317,-6.430716938,2.63105636,0.891865253,2
1.61696E+18,-60.02832129,-12.49638593,1.394370538,0.649949032,2
1.61696E+18,-60.01838818,-5.407615415,-0.512577182,-1.012983741,2
1.61696E+18,-60.0084563,-0.427658463,-2.628073544,-2.369470685,2
1.61696E+18,-59.99852344,1.553282751,-3.758262985,-2.428189562,2
1.61696E+18,-59.98859131,2.799261301,-3.746476685,-1.513179288,2
1.61696E+18,-59.97865845,2.522127783,-2.98883987,-0.316947204,2
1.61696E+18,-59.96872632,2.174894892,-1.842208414,0.520282203,2
1.61696E+18,-59.95879419,1.993221982,-0.626505174,0.81148794,2
1.61696E+18,-59.94886133,1.611578288,0.181790984,0.567616932,2
1.61696E+18,-59.9389292,0.709298608,0.469040238,0.303100319,2
1.61696E+18,-59.92899609,-0.591084901,0.468553916,0.528831859,2
1.61696E+18,-59.91906421,-1.674092904,0.346197118,0.980549791,2
1.61696E+18,-59.9091311,-3.136832045,0.474126163,1.67183285,2
1.61696E+18,-59.89919922,-7.69363844,1.585255514,3.074399554,2
1.61696E+18,-59.8892666,-6.565936725,2.716103126,3.126085902,2
1.61696E+18,-59.87933423,-4.925167414,1.827442222,2.61174814,2
1.61696E+18,-59.8694021,-4.363226774,0.889632964,1.797685381,2
1.61696E+18,-59.85946948,-3.53755921,0.758660897,0.582172404,2
1.61696E+18,-59.84953735,-3.942320744,0.332249256,0.208166657,2
1.61696E+18,-59.83960425,-5.306052399,-0.231159118,0.54033978,2
1.61696E+18,-59.82967236,-5.197677364,-1.095341414,0.976731986,2
1.61696E+18,-59.81973926,-2.807342316,-2.222460946,1.235462709,2
1.61696E+18,-59.80980713,-0.54925067,-3.442005663,1.292802553,2
1.61696E+18,-59.79987549,0.651055678,-4.55019253,1.033244731,2
1.61696E+18,-59.78994238,1.020821595,-5.341684853,0.559230212,2
1.61696E+18,-59.78001025,1.060375899,-5.812345386,-0.091021456,2
1.61696E+18,-59.77007715,1.231655134,-5.793021677,-0.810544814,2
1.61696E+18,-59.76014526,0.919616599,-5.23379731,-1.169767417,2
1.61696E+18,-59.7502124,-1.173333586,-4.273370562,-0.911730814,2
1.61696E+18,-59.74028027,-4.251719871,-2.637501298,-0.266385038,2
1.61696E+18,-59.73034741,-6.705318892,-0.437401237,-0.162035313,2
1.61696E+18,-59.72041528,-6.554885754,1.315534317,-1.291595808,2
1.61696E+18,-59.71048315,-2.116409093,0.581817307,-3.708146955,2
1.61696E+18,-59.70055029,1.987531661,-0.805832399,-5.68191634,2
1.61696E+18,-59.69061841,2.358965804,-0.387347459,-5.956155306,2
1.61696E+18,-59.68068506,4.693223575,-1.162735035,-2.28772486,2
1.61696E+18,-59.67075342,9.096009914,-3.250564807,5.01281238,2
1.61696E+18,-59.66082031,5.354771714,-3.493798978,7.35064684,2
1.61696E+18,-59.65088818,2.906395688,-2.913106876,6.615037733,2
1.61696E+18,-59.6409563,3.576331716,-1.45289813,5.60561636,2
1.61696E+18,-59.63102319,-5.268711971,5.220248677,2.320209664,2
1.61696E+18,-59.62109106,-10.47543189,20.20420487,-3.136025697,2
1.61696E+18,-59.61115845,-6.598059125,38.41819454,-8.361268237,2
1.61696E+18,-59.60122632,-6.485307775,40.08825073,-6.965002679,2
1.61696E+18,-59.59129321,-7.456095174,31.83594965,-3.831312147,2
1.61696E+18,-59.58136133,-7.064206565,24.78280224,-4.153028611,2
1.61696E+18,-59.57142944,-5.917482169,20.05040079,-6.187735865,2
1.61696E+18,-59.56149634,-4.368651137,17.00963843,-6.645418842,2
1.61696E+18,-59.55156445,-3.52151876,14.74120717,-5.473552991,2
1.61696E+18,-59.54163135,-3.434548917,12.47792556,-4.256152008,2
1.61696E+18,-59.53169922,-4.828196402,10.76443822,-3.708702835,2
1.61696E+18,-59.52176611,-6.543205838,9.26481399,-2.518038175,2
1.61696E+18,-59.51183423,-7.199774726,6.381460448,-1.300564419,2
1.61696E+18,-59.50190137,-5.164580566,2.066062177,-1.88736726,2
1.61696E+18,-59.49196924,-0.81923322,-0.175022805,-4.581187388,2
1.61696E+18,-59.48203735,1.388387957,0.460910708,-8.80571004,2
1.61696E+18,-59.47210425,-7.132467031,4.583466439,-14.46508839,2
1.61696E+18,-59.46217236,-14.45274094,3.282689546,-14.05276548,2
1.61696E+18,-59.4522395,-11.32083876,-1.031465447,-7.124502336,2
1.61696E+18,-59.44230737,5.767772085,-4.526848479,-2.405240356,2
1.61696E+18,-59.43237427,21.88568496,-10.67961474,0.389511067,2
1.61696E+18,-59.42244238,22.72391975,-14.69650995,2.444064008,2
1.61696E+18,-59.41251025,18.94113957,-12.98046942,3.607362814,2
1.61696E+18,-59.40257715,13.64721834,-9.225440011,4.289275987,2
1.61696E+18,-59.39264526,8.230478541,-4.416376765,3.941023106,2
1.61696E+18,-59.38271216,4.962297413,2.468738722,3.27353944,2
1.61696E+18,-59.37278003,5.806972461,8.535871939,2.810190107,2
1.61696E+18,-59.36284741,11.43176465,8.171531847,1.971046829,2
1.61696E+18,-59.35291528,10.50440313,4.100597582,0.657308309,2
1.61696E+18,-59.3429834,10.42697619,0.391907314,2.71952141,2
1.61696E+18,-59.33305054,11.75188741,-0.416740726,7.674540941,2
1.61696E+18,-59.32311841,14.06199508,-2.785371308,9.286818317,2
1.61696E+18,-59.3131853,15.72852076,-8.017069599,9.903043505,2
1.61696E+18,-59.30325342,15.4217964,-12.67506024,9.152396987,2
1.61696E+18,-59.29332031,18.16803806,-16.59961503,7.912144413,2
1.61696E+18,-59.28338818,17.90794687,-20.38212866,5.078090031,2
1.61696E+18,-59.27345508,16.33737396,-23.94412088,1.277550916,2
1.61696E+18,-59.26352319,16.46855119,-25.39160049,-0.92557463,2
1.61696E+18,-59.25359106,16.72715069,-24.88819154,-1.951661014,2
1.61696E+18,-59.2436582,15.27111835,-23.26629761,-2.339499764,2
1.61696E+18,-59.23372632,12.02765081,-21.81199312,-2.303311137,2
1.61696E+18,-59.22379346,7.952533706,-19.40217771,-0.651110623,2
1.61696E+18,-59.21386133,6.137913557,-15.48805664,1.316063602,2
1.61696E+18,-59.20392847,5.952530102,-11.65602114,2.548089907,2
1.61696E+18,-59.19399634,5.270373183,-8.660449336,3.910267902,2
1.61696E+18,-59.18406421,4.405317026,-6.390039475,5.300375522,2
1.61696E+18,-59.17413135,4.283111035,-3.917472719,6.222603765,2
1.61696E+18,-59.16419922,6.453775158,-1.985812582,5.853975619,2
1.61696E+18,-59.15426611,9.00648045,-1.556470733,4.33876161,2
1.61696E+18,-59.14433398,8.944061111,-2.29913502,2.726897199,2
1.61696E+18,-59.13440112,6.212697288,-3.206137052,0.923486134,2
1.61696E+18,-59.12446899,2.734577232,-3.312150033,-0.731442636,2
1.61696E+18,-59.11453711,-0.705765612,-2.791055198,-1.855016896,2
1.61696E+18,-59.10460425,-2.952187425,-1.435842951,-2.623035842,2
1.61696E+18,-59.09467212,-2.389735328,0.123822779,-3.071363255,2
1.61696E+18,-59.08473926,-0.876731981,0.96228202,-2.846373473,2
1.61696E+18,-59.07480713,-0.890593918,0.517647909,-2.114472718,2
1.61696E+18,-59.06487402,-3.269398102,-0.161774616,-1.478128141,2
1.61696E+18,-59.05494189,-6.080145259,1.437007903,-2.166613532,2
1.61696E+18,-59.04500903,-22.98453701,12.30365152,-7.867699122,2
1.61696E+18,-59.0350769,-3.392207905,15.80346582,-9.699448685,2
1.61696E+18,-59.02514526,28.6532981,15.45711672,-13.41101539,2
1.61696E+18,-59.01521216,-16.22479387,31.68111214,-21.02548384,2
1.61696E+18,-59.00528003,-54.32629679,52.48005868,-11.75882919,2
1.61696E+18,-58.99534717,27.12410935,32.40727771,6.966466321,2
1.61696E+18,-58.98541504,29.74041296,13.06398006,12.86458094,2
1.61696E+18,-58.97548218,-0.756377463,10.66772556,8.084899857,2
1.61696E+18,-58.96555005,-10.49702413,12.62570087,4.928936411,2
1.61696E+18,-58.95561816,-4.799374796,15.41731663,4.408489519,2
1.61696E+18,-58.94568506,-0.935872152,17.42212617,2.964246696,2
1.61696E+18,-58.93575293,-5.609579418,20.55653128,2.053685072,2
1.61696E+18,-58.92582007,-4.927168232,21.29070013,0.702194037,2
1.61696E+18,-58.91588818,3.483992455,15.08304259,-2.588429809,2
1.61696E+18,-58.90595483,4.564879519,9.005717648,-3.625196577,2
1.61696E+18,-58.89602319,2.624657891,6.25068595,-3.928544733,2
1.61696E+18,-58.88609106,1.722873594,3.463845154,-5.187124406,2
1.61696E+18,-58.87615796,2.013188665,0.866885125,-7.157337268,2
1.61696E+18,-58.86622607,2.603333071,-1.831498219,-8.344336391,2
1.61696E+18,-58.85629321,2.640378315,-4.128971443,-8.296017474,2
1.61696E+18,-58.84636108,1.543784855,-6.175386671,-7.740050647,2
1.61696E+18,-58.83642798,0.939042599,-7.57485424,-6.347259487,2
1.61696E+18,-58.82649609,0.76041987,-7.822358928,-3.362286814,2
1.61696E+18,-58.81656396,1.085994909,-7.508985637,-0.004948562,2
1.61696E+18,-58.80663086,1.741264844,-6.946974854,2.95216346,2
1.61696E+18,-58.79669922,1.443046598,-6.305826238,5.361593669,2
1.61696E+18,-58.78676611,0.708414811,-6.08822452,6.948588135,2
1.61696E+18,-58.77683423,-0.211633749,-5.763695629,7.809478988,2
1.61696E+18,-58.76690112,-1.068537579,-5.177093426,8.062152604,2
1.61696E+18,-58.75696899,-0.994445922,-4.270786391,7.536866747,2
1.61696E+18,-58.74703613,0.046442611,-3.099088882,5.739902665,2
1.61696E+18,-58.737104,0.765311003,-2.339865674,3.388260044,2
1.61696E+18,-58.72717188,0.567291353,-1.263175769,1.604447998,2
1.61696E+18,-58.71723901,0.160341369,0.210636555,0.223383808,2
1.61696E+18,-58.70730713,-0.192047005,1.715315141,-0.810464442,2
1.61696E+18,-58.69737402,-0.295579933,3.199871562,-1.637643872,2
1.61696E+18,-58.68744214,-1.375403387,4.499606252,-2.161906085,2
1.61696E+18,-58.67750928,-8.802713781,6.054177874,-1.867141925,2
1.61696E+18,-58.66757715,-9.897741891,5.105503523,-2.327653405,2
1.61696E+18,-58.65764502,-4.17558005,1.568557477,-3.463818851,2
1.61696E+18,-58.64771216,-0.4209586,-1.470247909,-4.333873254,2
1.61696E+18,-58.63778003,1.266005439,-2.782998733,-4.054690986,2
1.61696E+18,-58.62784692,1.225399873,-3.210813811,-2.793972547,2
1.61696E+18,-58.61791504,1.084507886,-3.303442411,-1.509914587,2
1.61696E+18,-58.60798218,0.726668261,-2.876446248,-0.133651953,2
1.61696E+18,-58.59805005,0.74297876,-2.316968783,1.184538139,2
1.61696E+18,-58.58811816,0.676395871,-1.179541793,2.199998354,2
1.61696E+18,-58.57818506,0.367924929,-0.106173141,2.835920761,2
1.61696E+18,-58.56825317,0.240862803,0.439309117,2.93651464,2
1.61696E+18,-58.55832031,-0.028022016,0.623233605,2.553271401,2
1.61696E+18,-58.54838818,-0.66396426,0.53633975,2.015653886,2
1.61696E+18,-58.53845508,-1.398701261,0.458619382,1.606470736,2
1.61696E+18,-58.52852319,-2.252172193,0.581912584,1.512895065,2
1.61696E+18,-58.51859009,-3.350735492,0.961135188,1.656608977,2
1.61696E+18,-58.50865796,-4.3329614,1.172243452,1.601358215,2
1.61696E+18,-58.49872583,-5.328700868,1.067047048,1.185943184,2
1.61696E+18,-58.48879297,-6.271252352,1.023947326,0.295839242,2
1.61696E+18,-58.47886084,-6.234855928,1.009816509,-1.274882866,2
1.61696E+18,-58.46892798,-5.866470944,0.664869684,-2.374231031,2
1.61696E+18,-58.45899634,-6.053024612,-0.341996743,-2.043746008,2
1.61696E+18,-58.44906323,-5.182563966,-2.123874899,-0.920345936,2
1.61696E+18,-58.4391311,-2.761709277,-3.714692139,-0.393382939,2
1.61696E+18,-58.42919922,-0.44146834,-5.057388019,-0.567113659,2
1.61696E+18,-58.41926611,0.129850223,-6.014948856,-0.634756139,2
1.61696E+18,-58.40933398,0.174221133,-6.283133344,-0.992607893,2
1.61696E+18,-58.39940112,0.811587601,-5.868249059,-1.805176322,2
1.61696E+18,-58.38946899,1.11652098,-4.372380387,-2.71112183,2
1.61696E+18,-58.37953589,-1.217448037,-1.573098043,-4.12709016,2
1.61696E+18,-58.369604,-6.019411681,1.326480074,-5.891477959,2
1.61696E+18,-58.35967212,-8.803425144,2.730723772,-5.451030194,2
1.61696E+18,-58.34973901,2.199741457,2.294445401,-2.757421809,2
1.61696E+18,-58.33980713,10.74499585,1.454351252,3.594193243,2
1.61696E+18,-58.32987427,8.420140697,2.329274138,11.04019226,2
1.61696E+18,-58.31994214,6.228443723,-0.336021761,12.3015227,2
1.61696E+18,-58.31000903,3.322434111,-4.102897091,7.857165453,2
1.61696E+18,-58.30007715,4.712102171,-3.470858832,3.371945454,2
1.61696E+18,-58.29014502,4.660522206,-3.17929756,1.185965688,2
1.61696E+18,-58.28021191,1.83537886,-2.349108134,1.868876933,2
1.61696E+18,-58.27028003,2.110351985,0.456813794,3.858238732,2
1.61696E+18,-58.26034692,0.143135967,4.247314914,1.700764638,2
1.61696E+18,-58.25041479,-6.65783058,13.67590317,-5.481200876,2
1.61696E+18,-58.24048193,-7.92798028,25.88835291,-9.05023542,2
1.61696E+18,-58.23055005,-9.278966434,31.45263189,-7.584175026,2
1.61696E+18,-58.22061816,-11.32091825,29.60157498,-3.824658826,2
1.61696E+18,-58.2106853,-10.57287987,24.92462596,-2.084515826,2
1.61696E+18,-58.20075317,-8.764332904,21.07137349,-2.307209605,2
1.61696E+18,-58.19082007,-5.764845968,18.26151364,-2.863497042,2
1.61696E+18,-58.18088818,-3.290874606,16.99585306,-4.179801175,2
1.61696E+18,-58.17095508,-2.340228078,15.94254462,-5.255872364,2
1.61696E+18,-58.16102295,-2.589461782,14.38155085,-5.218640657,2
1.61696E+18,-58.15109106,-3.912963133,13.26855571,-4.557289795,2
1.61696E+18,-58.14115796,-6.089767658,12.00967092,-4.260309128,2
1.61696E+18,-58.13122583,-8.090687793,9.690755676,-4.196997809,2
1.61696E+18,-58.12129297,-3.071814506,6.425154043,-5.148839976,2
1.61696E+18,-58.11136084,2.487884152,3.007453385,-7.660679004,2
1.61696E+18,-58.10142798,-0.262441561,2.533985394,-11.51856264,2
1.61696E+18,-58.09149609,-9.896081849,3.320023543,-14.57421161,2
1.61696E+18,-58.08156299,-17.55237285,1.674323206,-10.49518873,2
1.61696E+18,-58.07163086,-10.02499698,0.061063248,-2.651576585,2
1.61696E+18,-58.06169922,8.585037829,-3.568026244,1.088596616,2
1.61696E+18,-58.05176611,22.86584634,-9.349026059,3.963302742,2
1.61696E+18,-58.04183398,27.38825245,-11.73258416,4.310255939,2
1.61696E+18,-58.03190088,17.57043808,-10.28286466,3.389257531,2
1.61696E+18,-58.02196899,5.790623968,-6.824914993,1.307993108,2
1.61696E+18,-58.01203589,5.93168722,-0.485310989,-0.53109805,2
1.61696E+18,-58.00210376,12.10611001,6.025870063,-1.452123639,2
1.61696E+18,-57.99217188,16.66716471,7.511599034,-0.954837257,2
1.61696E+18,-57.98223877,14.22388192,4.452623552,-0.036266295,2
1.61696E+18,-57.97230664,12.06520985,0.112827922,0.275925604,2
1.61696E+18,-57.96237402,11.41372045,-3.136621032,2.468993574,2
1.61696E+18,-57.95244214,14.95086582,-5.770094975,6.030622226,2
1.61696E+18,-57.94250903,20.10583685,-12.08125497,9.740925774,2
1.61696E+18,-57.93257715,19.01488286,-17.59625057,11.85417523,2
1.61696E+18,-57.92264502,22.16377709,-21.92093864,11.44273028,2
1.61696E+18,-57.91271191,23.08564761,-25.14566408,8.60963451,2
1.61696E+18,-57.90278003,16.20806953,-28.41764693,3.246724498,2
1.61696E+18,-57.89284692,11.20459489,-30.42055328,-4.186071049,2
1.61696E+18,-57.88291479,10.86107021,-27.46810515,-11.23719484,2
1.61696E+18,-57.87298193,11.85616612,-19.38009213,-12.4135393,2
1.61696E+18,-57.8630498,11.79323064,-13.1151269,-9.177070825,2
1.61696E+18,-57.85311792,10.12240171,-10.44904657,-5.858154366,2
1.61696E+18,-57.84318481,8.137994319,-9.43668856,-3.021319998,2
1.61696E+18,-57.83325293,7.450628141,-8.748632646,-0.627111031,2
1.61696E+18,-57.82332007,7.624311806,-7.861238402,1.466090205,2
1.61696E+18,-57.81338818,7.070434061,-6.765084502,3.150786336,2
1.61696E+18,-57.80345508,4.432348825,-5.508673405,4.076989327,2
1.61696E+18,-57.79352295,2.02719907,-4.328844027,3.721627491,2
1.61696E+18,-57.78358984,3.809730137,-4.66938648,2.589285841,2
1.61696E+18,-57.77365796,6.291099209,-5.868864561,2.803230789,2
1.61696E+18,-57.76372583,7.198405192,-6.084952367,3.479738304,2
1.61696E+18,-57.75379272,6.017790801,-6.066235976,3.518806871,2
1.61696E+18,-57.74386084,3.081524584,-5.760908629,2.761318524,2
1.61696E+18,-57.73392773,-0.056001873,-4.14056485,1.363228965,2
1.61696E+18,-57.72399585,-2.548027948,-1.482181508,-0.56657736,2
1.61696E+18,-57.71406323,-4.105764755,0.597124766,-1.985690856,2
1.61696E+18,-57.7041311,-6.535390196,2.630067349,-2.915517152,2
1.61696E+18,-57.69419873,-9.029577832,4.474451353,-4.186847001,2
1.61696E+18,-57.68426611,-13.76854638,6.941008055,-5.868659394,2
1.61696E+18,-57.67433398,-15.5159699,10.52236549,-7.991734082,2
1.61696E+18,-57.66440088,6.590249913,10.38652026,-8.115026116,2
1.61696E+18,-57.65446899,33.71295465,7.432148481,-8.131193991,2
1.61696E+18,-57.64453589,7.927485774,13.03733405,-9.259813406,2
1.61696E+18,-57.63460376,-68.4035245,54.75511607,-15.03916487,2
1.61696E+18,-57.62467212,5.534374248,45.37889396,-0.047962067,2
1.61696E+18,-57.61473901,30.60918317,26.76889072,10.10295233,2
1.61696E+18,-57.60480688,-2.985562164,15.1708822,11.52932719,2
1.61696E+18,-57.59487402,-2.310909044,13.14343295,6.735239983,2
1.61696E+18,-57.58494189,-0.208210204,13.80869368,3.479866899,2
1.61696E+18,-57.57500903,-1.154393907,16.28301927,-0.418945251,2
1.61696E+18,-57.56507715,-0.364458166,18.76099227,-3.059236764,2
1.61696E+18,-57.55514502,1.589692911,15.3489416,-2.267361433,2
1.61696E+18,-57.54521191,2.847946129,10.78245318,-1.093936808,2
1.61696E+18,-57.53528003,0.638291766,9.997357281,-1.923169079,2
1.61696E+18,-57.52534692,-3.711436352,10.5020253,-2.33257581,2
1.61696E+18,-57.51541479,-4.28107456,9.740774968,-3.36428091,2
1.61696E+18,-57.50548169,1.213901889,6.102915893,-4.231856648,2
1.61696E+18,-57.49555005,3.600259704,1.29408704,-4.123214487,2
1.61696E+18,-57.48561792,2.921344543,-2.208119117,-3.939674614,2
1.61696E+18,-57.47568481,1.458425516,-4.662649865,-3.654257836,2
1.61696E+18,-57.46575293,-0.15723332,-6.739740802,-3.334315103,2
1.61696E+18,-57.45581982,-1.212691198,-8.526388656,-2.681762757,2
1.61696E+18,-57.4458877,-1.451481249,-10.11242275,-1.468686797,2
1.61696E+18,-57.43595508,-1.566496453,-11.40182894,-0.004477438,2
1.61696E+18,-57.42602295,-1.398804137,-11.83201016,1.64317228,2
1.61696E+18,-57.41609106,-0.973045406,-11.65176816,3.706133277,2
1.61696E+18,-57.40615796,-0.534960279,-10.87110528,5.102197467,2
1.61696E+18,-57.39622607,0.194538237,-9.27071357,5.515410604,2
1.61696E+18,-57.38629297,0.886297682,-7.103404603,5.357675618,2
1.61696E+18,-57.37636108,1.331354987,-4.86343255,4.608614324,2
1.61696E+18,-57.36642798,1.452785902,-2.867684265,3.413418451,2
1.61696E+18,-57.35649585,0.997252796,-0.856377175,1.99264915,2
1.61696E+18,-57.34656299,0.500192917,1.603884811,0.604309709,2
1.61696E+18,-57.33663086,0.285646495,4.576237072,-0.795661718,2
1.61696E+18,-57.32669873,-0.432928476,7.758933042,-2.017551244,2
1.61696E+18,-57.31676611,-2.59591315,9.947958167,-2.522355162,2
1.61696E+18,-57.30683398,-9.951501539,9.809378548,-1.009282549,2
1.61696E+18,-57.29690088,-14.75539703,7.488055662,1.737992983,2
1.61696E+18,-57.28696899,-5.813914243,3.146502959,1.618402142,2
1.61696E+18,-57.27703589,-2.146918506,-0.934981341,0.61402154,2
1.61696E+18,-57.267104,0.436529131,-3.214595668,-0.781610688,2
1.61696E+18,-57.25717212,2.06821614,-3.86650884,-1.48562405,2
1.61696E+18,-57.24723901,2.173460476,-3.546946631,-1.400288238,2
1.61696E+18,-57.23730688,2.028269914,-2.722018487,-1.456536633,2
1.61696E+18,-57.22737378,0.956326911,-1.790413344,-1.658120113,2
1.61696E+18,-57.21744189,-1.234454117,-1.051615085,-1.466181829,2
1.61696E+18,-57.20750879,-5.846424181,0.029804771,-0.427762179,2
1.61696E+18,-57.19757666,-7.396081727,0.230184136,0.66540949,2
1.61696E+18,-57.18764478,-6.384900359,-0.816867587,1.479153831,2
1.61696E+18,-57.17771191,-5.900488949,-1.786277852,1.937364778,2
1.61696E+18,-57.16778027,-5.85048427,-2.315889171,1.910077543,2
1.61696E+18,-57.15784717,-6.224820856,-2.552011464,1.797039631,2
1.61696E+18,-57.14791577,-6.174212366,-2.595440272,2.00568092,2
1.61696E+18,-57.13798267,-5.429610974,-2.603655142,2.494568745,2
1.61696E+18,-57.12805078,-4.066192623,-2.697747969,2.93807882,2
1.61696E+18,-57.11811865,-2.4914322,-2.964832387,2.99461027,2
1.61696E+18,-57.10818555,-0.915222017,-3.512254088,2.374949847,2
1.61696E+18,-57.09825366,0.307232889,-4.232008039,1.086773492,2
1.61696E+18,-57.08832056,1.069293073,-4.542809434,-0.522214194,2
1.61696E+18,-57.07838892,1.397223736,-4.199764643,-1.982193369,2
1.61696E+18,-57.06845581,0.594639087,-2.873217349,-3.66845938,2
1.61696E+18,-57.05852368,-1.953650727,-0.525505637,-4.856328856,2
1.61696E+18,-57.0485918,-5.986839198,2.468483871,-5.729591115,2
1.61696E+18,-57.03865869,-7.760610036,5.262611901,-6.224269067,2
1.61696E+18,-57.02872656,-1.059791962,6.023350774,-5.775526936,2
1.61696E+18,-57.0187937,9.511868597,3.842712954,-3.356083283,2
1.61696E+18,-57.00886182,14.30425719,1.179355915,2.162127181,2
1.61696E+18,-56.99892871,14.27141407,-0.116518593,6.591636983,2
1.61696E+18,-56.98899658,3.923413799,0.187027131,6.231517723,2
1.61696E+18,-56.9790647,3.996602954,0.551408725,4.342782244,2
1.61696E+18,-56.96913159,13.74391697,-0.336093657,4.988472888,2
1.61696E+18,-56.95919971,9.402865786,0.690951051,4.543808382,2
1.61696E+18,-56.94926685,0.27167233,7.484857158,2.055808786,2
1.61696E+18,-56.93933472,-7.55113668,18.36120852,-1.35809774,2
1.61696E+18,-56.92940161,-6.269731426,29.65847234,-6.071237145,2
1.61696E+18,-56.91946973,-6.028711424,30.83103728,-7.134964108,2
1.61696E+18,-56.9095376,-7.855503073,28.79661118,-7.039089659,2
1.61696E+18,-56.89960474,-6.900002091,26.83165434,-8.920537027,2
1.61696E+18,-56.88967261,-5.58213144,23.88979775,-9.943386037,2
1.61696E+18,-56.87973975,-3.523722992,20.54389626,-9.706648826,2
1.61696E+18,-56.86980762,-1.631424998,16.75974947,-8.717048591,2
1.61696E+18,-56.85987451,-1.578627035,13.48620361,-8.288551375,2
1.61696E+18,-56.84994287,-4.075339806,10.67916115,-7.956824682,2
1.61696E+18,-56.84001074,-8.189789972,7.859002605,-6.082237847,2
1.61696E+18,-56.83007788,-12.57872636,4.753369416,-2.449473173,2
1.61696E+18,-56.82014575,-13.29131465,1.436982768,0.597533639,2
1.61696E+18,-56.81021265,-7.476195128,-1.086606904,2.131309579,2
1.61696E+18,-56.80028076,1.639212145,-3.067013243,1.51424341,2
1.61696E+18,-56.79034766,1.232131227,-5.045152222,1.817944325,2
1.61696E+18,-56.78041553,-12.00142214,-2.866107224,0.955161959,2
1.61696E+18,-56.77048267,-21.80711353,2.269941074,-3.94810868,2
1.61696E+18,-56.76055078,-11.48386542,0.865913065,-4.409644826,2
1.61696E+18,-56.75061865,6.583623188,-3.387568555,-3.261590059,2
1.61696E+18,-56.74068555,16.39035385,-8.497253747,-3.046785279,2
1.61696E+18,-56.73075391,16.30581913,-10.04332058,-1.823172874,2
1.61696E+18,-56.7208208,13.0938842,-7.56703509,1.138429445,2
1.61696E+18,-56.71088867,12.01977379,-4.292764998,3.587166706,2
1.61696E+18,-56.70095581,12.86177758,-2.015793879,4.970938985,2
1.61696E+18,-56.69102368,13.92958801,0.538632245,4.859781334,2
1.61696E+18,-56.68109155,12.27498657,2.825818469,4.093174738,2
1.61696E+18,-56.67115869,8.74191649,4.448349528,1.785720218,2
1.61696E+18,-56.66122656,6.566173456,2.155750047,-1.736574202,2
1.61696E+18,-56.6512937,4.659656529,-3.400022963,-3.102857879,2
1.61696E+18,-56.64136157,7.034881101,-6.178928289,0.552096122,2
1.61696E+18,-56.63142871,9.996745871,-9.148820882,8.977841215,2
1.61696E+18,-56.62149683,17.23636395,-15.888308,14.88497267,2
1.61696E+18,-56.61156494,27.40755804,-21.1753763,16.87288486,2
1.61696E+18,-56.60163184,20.70378404,-22.4142985,15.9339767,2
1.61696E+18,-56.59169971,13.2445342,-22.73199316,10.21511974,2
1.61696E+18,-56.5817666,12.84277594,-21.97818672,3.061519906,2
1.61696E+18,-56.57183472,13.88348209,-21.99396647,-3.385403486,2
1.61696E+18,-56.56190161,13.70790925,-20.78570595,-7.174175006,2
1.61696E+18,-56.55196948,10.31622917,-17.31675792,-5.578091809,2
1.61696E+18,-56.5420376,8.315332999,-12.80421269,-1.406733761,2
1.61696E+18,-56.53210449,7.551383932,-9.871461787,1.258359309,2
1.61696E+18,-56.52217285,5.456802932,-8.444535133,2.493603991,2
1.61696E+18,-56.51223999,2.597707048,-6.784468417,3.270271378,2
1.61696E+18,-56.50230762,0.287708104,-5.124815542,4.278825028,2
1.61696E+18,-56.49237476,-1.575578169,-3.472127829,5.7369935,2
1.61696E+18,-56.48244287,-1.443997031,-2.098037278,6.635329995,2
1.61696E+18,-56.47251074,3.567750057,-2.020636059,6.148639534,2
1.61696E+18,-56.46257764,7.642898433,-2.048717075,4.695283138,2
1.61696E+18,-56.45264575,7.916125007,-2.493648123,2.678852715,2
1.61696E+18,-56.44271265,5.90255991,-3.336673649,0.50488692,2
1.61696E+18,-56.43278052,3.759193544,-4.310720926,-1.262561583,2
1.61696E+18,-56.42284766,2.067101457,-5.082120894,-2.150227484,2
1.61696E+18,-56.41291553,1.808870208,-5.037071792,-2.592596865,2
1.61696E+18,-56.40298364,1.412714004,-4.696199668,-2.987495178,2
1.61696E+18,-56.39305078,-0.465194084,-4.776799392,-3.321917979,2
1.61696E+18,-56.38311865,-3.512402557,-4.123042053,-3.895290113,2
1.61696E+18,-56.37318579,-8.963746054,-2.264188794,-5.015101367,2
1.61696E+18,-56.36325391,-28.46009258,4.087161762,-8.868747803,2
1.61696E+18,-56.3533208,-11.97495967,6.608795039,-8.086341288,2
1.61696E+18,-56.34338867,24.49861237,1.461838977,-8.002650029,2
1.61696E+18,-56.33345679,2.382698854,16.21988155,-18.35178836,2
1.61696E+18,-56.32352368,-67.4988249,53.03829111,-15.25938349,2
1.61696E+18,-56.31359155,-3.898258608,55.08481915,3.657419807,2
1.61696E+18,-56.30365845,32.20766582,22.06464452,13.93274443,2
1.61696E+18,-56.29372681,-1.217253099,11.97919745,10.93772791,2
1.61696E+18,-56.2837937,-19.82024413,18.0153855,4.300109516,2
1.61696E+18,-56.27386182,-1.576556659,19.90603324,1.595857279,2
1.61696E+18,-56.26392969,7.247794369,16.4061453,-1.028497245,2
1.61696E+18,-56.25399658,-0.66654317,15.19623876,-0.742106361,2
1.61696E+18,-56.2440647,-2.626177648,12.44107145,0.254754075,2
1.61696E+18,-56.23413184,1.72756409,11.12739241,-1.057465419,2
1.61696E+18,-56.22419971,-0.278085997,12.92786596,-2.794197004,2
1.61696E+18,-56.2142666,-6.982244321,13.21540747,-4.199202917,2
1.61696E+18,-56.20433472,-3.084339057,11.01082705,-4.631826273,2
1.61696E+18,-56.19440283,1.358506029,6.306650998,-4.343219759,2
1.61696E+18,-56.18446948,2.119597953,2.211999173,-3.717268127,2
1.61696E+18,-56.17453784,1.665786409,0.806207077,-1.951720197,2
1.61696E+18,-56.16460474,1.086952941,0.079409637,-0.27785248,2
1.61696E+18,-56.15467261,0.652560968,-1.184148994,0.747306121,2
1.61696E+18,-56.14473584,0.20231479,-2.505720838,1.555705156,2
1.61696E+18,-56.13480371,-0.130433722,-3.922535848,1.9287159,2
1.61696E+18,-56.12487158,-0.483756161,-5.407361733,2.005350519,2
1.61696E+18,-56.11493872,-1.208149536,-6.958388229,1.912777011,2
1.61696E+18,-56.10500659,-2.106784064,-8.372243804,1.993116768,2
1.61696E+18,-56.09507349,-2.115586379,-9.547311082,2.27317538,2
1.61696E+18,-56.0851416,-1.107826802,-10.24095327,2.513521867,2
1.61696E+18,-56.0752085,0.048825113,-10.44013027,2.502422089,2
1.61696E+18,-56.06527686,0.97143914,-10.25988126,2.105339856,2
1.61696E+18,-56.05534473,1.604427247,-9.710137253,1.358026721,2
1.61696E+18,-56.04541162,2.033463976,-8.910046613,0.494906281,2
1.61696E+18,-56.03547974,2.223265248,-7.782100567,-0.363224167,2
1.61696E+18,-56.02554663,1.970413938,-6.261170519,-1.100631922,2
1.61696E+18,-56.0156145,1.28735101,-4.454450767,-1.730767854,2
1.61696E+18,-56.00568164,0.451400536,-2.381307107,-2.283260575,2
1.61696E+18,-55.99574976,-0.458922164,-0.05544307,-2.660390883,2
1.61696E+18,-55.98581763,-1.337262165,2.237481989,-2.871015455,2
1.61696E+18,-55.97588452,-1.872664342,4.18777493,-3.009777444,2
1.61696E+18,-55.96595288,-1.705555379,5.508090052,-2.856877332,2
1.61696E+18,-55.95601978,-1.450177766,6.243481717,-2.29585819,2
1.61696E+18,-55.94608765,-1.138404311,6.061069971,-1.278190091,2
1.61696E+18,-55.93615479,-0.921421602,5.162401468,-0.076311963,2
1.61696E+18,-55.92622266,-0.636158553,4.121678948,1.07398861,2
1.61696E+18,-55.91629053,-0.292465528,3.507504263,1.947849639,2
1.61696E+18,-55.90635767,0.125148475,2.888799533,2.528688749,2
1.61696E+18,-55.89642554,0.675742376,1.944305099,3.137176328,2
1.61696E+18,-55.88649268,1.046195983,1.054202764,3.703519003,2
1.61696E+18,-55.87656055,0.797538033,0.336539063,3.765377201,2
1.61696E+18,-55.86662769,0.367863006,-0.444089921,3.710971364,2
1.61696E+18,-55.8566958,-0.049531211,-1.035286466,3.47659533,2
1.61696E+18,-55.84676392,-0.434790762,-1.503119667,2.900529134,2
1.61696E+18,-55.83683081,-1.013245315,-1.915623194,1.939956694,2
1.61696E+18,-55.82689868,-1.987740336,-1.894911245,0.398475294,2
1.61696E+18,-55.81696558,-5.052186359,-1.433632289,-0.875491626,2
1.61696E+18,-55.80703369,-6.862309197,-1.800667027,-0.811243829,2
1.61696E+18,-55.79710059,-7.779981091,-2.904566427,0.047412324,2
1.61696E+18,-55.78716846,-7.676691981,-3.706361533,0.62132821,2
1.61696E+18,-55.7772356,-5.694042831,-4.065072095,0.571432106,2
1.61696E+18,-55.76730347,-3.552730475,-4.132628797,0.422622186,2
1.61696E+18,-55.75737134,-2.916761891,-3.55097691,0.564703237,2
1.61696E+18,-55.74743872,-3.605627953,-2.394615502,0.8525658,2
1.61696E+18,-55.73750659,-4.08189405,-1.167299566,0.451217289,2
1.61696E+18,-55.72757373,-3.773583303,-0.299741656,-0.434435081,2
1.61696E+18,-55.71764185,-3.051061641,0.069237787,-1.31476231,2
1.61696E+18,-55.70770874,-3.577050678,0.260828865,-1.84980866,2
1.61696E+18,-55.69777661,-4.334536686,0.125512047,-2.589609666,2
1.61696E+18,-55.68784473,0.325270942,-0.916458427,-4.241919777,2
1.61696E+18,-55.67791162,12.60325757,-3.565812075,-4.434744488,2
1.61696E+18,-55.66797949,18.11273294,-7.355149413,0.355979968,2
1.61696E+18,-55.65804663,12.53597209,-8.577060274,5.302295092,2
1.61696E+18,-55.6481145,-4.219174861,-6.368660003,9.692520347,2
1.61696E+18,-55.63818164,-9.763093182,-3.188502026,10.76107254,2
1.61696E+18,-55.62824976,14.70753521,-2.74130128,6.093603291,2
1.61696E+18,-55.61831763,16.07711792,-5.778227428,6.889374898,2
1.61696E+18,-55.60838477,0.955280617,-5.890576626,5.969457855,2
1.61696E+18,-55.59845288,-4.39785502,-4.478970291,1.844615475,2
1.61696E+18,-55.58851978,3.965325772,-2.971142885,-1.029009432,2
1.61696E+18,-55.57858765,-3.356746131,1.803775515,-4.417155348,2
1.61696E+18,-55.56865454,-12.61346566,9.463664246,-8.75729643,2
1.61696E+18,-55.55872266,-17.79901303,24.26708091,-13.57705818,2
1.61696E+18,-55.54879053,-11.86356149,41.27981965,-15.54361194,2
1.61696E+18,-55.53885742,-6.356481489,34.41336619,-4.839742755,2
1.61696E+18,-55.52892554,-10.65405944,21.63263842,5.660879982,2
1.61696E+18,-55.51899243,-13.77220432,18.28213557,4.9910933,2
1.61696E+18,-55.50906079,-8.490627022,14.54884102,3.017359862,2
1.61696E+18,-55.49912793,-4.911857851,12.60210373,2.249494499,2
1.61696E+18,-55.48919556,-2.449671911,12.94165132,0.9089292,2
1.61696E+18,-55.47926367,-1.390895555,14.28776315,-0.783241212,2
1.61696E+18,-55.46933081,-0.417108391,15.25441622,-2.667262522,2
1.61696E+18,-55.45939868,0.159903562,15.63102485,-4.632412256,2
1.61696E+18,-55.44946558,-1.51346322,15.04553265,-5.224842434,2
1.61696E+18,-55.43953369,-5.6254223,12.80747549,-4.180734656,2
1.61696E+18,-55.42960156,-9.281461758,8.98496829,-3.794103237,2
1.61696E+18,-55.41966846,-10.91992221,5.462915278,-4.757203295,2
1.61696E+18,-55.40973682,-9.784549227,2.553539989,-7.105329433,2
1.61696E+18,-55.39980371,-6.332845762,1.570340268,-11.19361406,2
1.61696E+18,-55.38987158,-1.028401967,1.97350372,-14.25618728,2
1.61696E+18,-55.37993872,-9.784713478,1.985600986,-12.45062839,2
1.61696E+18,-55.37000659,-16.31487688,-1.79736331,-4.721276242,2
1.61696E+18,-55.36007446,-6.133676942,-6.083636608,0.772860834,2
1.61696E+18,-55.35014185,13.46400931,-10.02521326,2.70726194,2
1.61696E+18,-55.34020972,29.43238629,-14.09289524,3.502587849,2
1.61696E+18,-55.33027661,27.82488329,-13.04919283,4.488942527,2
1.61696E+18,-55.32034473,18.21830227,-9.500462821,3.126675392,2
1.61696E+18,-55.31041162,9.094129507,-6.41250499,0.404883262,2
1.61696E+18,-55.30047974,-4.469316328,0.066786887,-0.951852323,2
1.61696E+18,-55.29054785,-5.986103285,9.349638053,-3.222886819,2
1.61696E+18,-55.28061475,16.42709222,10.5038151,-5.07400773,2
1.61696E+18,-55.27068262,22.03007823,5.514309949,-1.960207747,2
1.61696E+18,-55.26074951,4.266411244,2.021004307,3.489813124,2
1.61696E+18,-55.25081763,-2.15126501,0.983698318,10.0352343,2
1.61696E+18,-55.24088452,18.9108064,-2.478682609,12.11154373,2
1.61696E+18,-55.23095239,22.85695693,-7.147441897,15.20563203,2
1.61696E+18,-55.22101978,14.37360837,-10.42802015,16.08426078,2
1.61696E+18,-55.21108765,16.24233421,-13.37100135,12.64313366,2
1.61696E+18,-55.20115576,17.22229684,-15.20024624,8.064343392,2
1.61696E+18,-55.19122266,16.03745811,-16.0903515,1.107619004,2
1.61696E+18,-55.18129077,14.01538998,-17.19636745,-4.926317753,2
1.61696E+18,-55.17135767,12.94471539,-18.34356297,-9.213071528,2
1.61696E+18,-55.16142578,11.18955047,-20.58145997,-12.27566812,2
1.61696E+18,-55.15149268,9.586714287,-22.26590008,-12.56789867,2
1.61696E+18,-55.14156396,6.94045159,-23.17768643,-10.02102574,2
1.61696E+18,-55.13163184,3.345629694,-23.06584868,-5.714318142,2
1.61696E+18,-55.12169897,1.205765198,-20.4692645,-1.078137474,2
1.61696E+18,-55.11176709,3.186532188,-15.08803674,1.805581103,2
1.61696E+18,-55.10183423,4.514211701,-11.12965568,3.675104517,2
1.61696E+18,-55.0919021,3.804052091,-8.105778395,5.103832375,2
1.61696E+18,-55.08196924,3.674421503,-6.14147388,5.247850385,2
1.61696E+18,-55.07203711,5.800549734,-5.499978057,4.346533998,2
1.61696E+18,-55.06210522,7.487229732,-5.686076967,2.902035447,2
