time,seconds_elapsed,z,y,x,label
1.61696E+18,-73.64999536,-0.21254268,0.672886402,-0.239772048,2
1.61696E+18,-73.6400625,-0.122410428,0.04883505,0.029487376,2
1.61696E+18,-73.63012939,0.089236034,-0.382809815,0.133008248,2
1.61696E+18,-73.62019629,0.248847481,-0.249701322,0.105112818,2
1.61696E+18,-73.61026318,0.159782566,-0.079848028,0.093086864,2
1.61696E+18,-73.60033032,-0.153136552,0.214063022,0.073163144,2
1.61696E+18,-73.59039819,-0.450627725,0.432112483,-0.007065993,2
1.61696E+18,-73.58046533,-0.318118951,0.613204963,-0.205749075,2
1.61696E+18,-73.57053247,0.201016055,0.888242971,-0.537322624,2
1.61696E+18,-73.56059937,0.82541622,0.90581253,-0.844589415,2
1.61696E+18,-73.55066626,0.436907901,0.730853438,-0.618668197,2
1.61696E+18,-73.5407334,-0.280064311,0.327615751,-0.005739713,2
1.61696E+18,-73.53080029,-0.413286787,-0.309594941,0.341107393,2
1.61696E+18,-73.52086841,-0.106710828,-0.459018026,0.373153221,2
1.61696E+18,-73.5109353,0.151423976,-0.411563616,0.261329508,2
1.61696E+18,-73.5010022,0.211582896,-0.307949512,0.042898354,2
1.61696E+18,-73.49106934,-0.090052538,-0.299224354,-0.04807751,2
1.61696E+18,-73.48113647,-0.502803976,-0.667944269,0.105099082,2
1.61696E+18,-73.47120337,-0.557887492,-1.183782499,0.175840259,2
1.61696E+18,-73.46127124,-0.33847668,-1.094945108,0.182141989,2
1.61696E+18,-73.45133813,-0.177975225,-0.427398314,0.204050746,2
1.61696E+18,-73.44140527,-0.242839509,0.622597061,0.250308055,2
1.61696E+18,-73.43147241,-0.39431843,1.63054427,0.311402868,2
1.61696E+18,-73.42153931,-0.31015484,1.753427722,0.409476288,2
1.61696E+18,-73.4116062,-0.501818472,1.230736558,0.717475777,2
1.61696E+18,-73.40167432,-1.367517602,1.394436005,0.721240391,2
1.61696E+18,-73.39174121,-1.208230054,0.866539088,0.781871969,2
1.61696E+18,-73.38180835,-1.056885719,-0.437916785,1.378020876,2
1.61696E+18,-73.37187524,-0.874683232,-1.081428624,1.447985808,2
1.61696E+18,-73.36194238,-0.542297197,-0.69900927,1.227780923,2
1.61696E+18,-73.35200928,-0.226994436,0.357862421,0.944440074,2
1.61696E+18,-73.34207642,0.139489719,1.462263925,0.600609978,2
1.61696E+18,-73.33214429,0.390318072,2.30458218,0.234300631,2
1.61696E+18,-73.32221143,0.576800429,2.319073646,0.022158348,2
1.61696E+18,-73.31227856,1.567446301,-1.629340739,0.679924045,2
1.61696E+18,-73.30234546,4.713163663,-7.703155626,0.866596079,2
1.61696E+18,-73.29241235,8.517386435,-5.897735851,-2.268966092,2
1.61696E+18,-73.28247974,8.358230476,-4.50229213,-4.708607315,2
1.61696E+18,-73.27254761,-2.35833189,-2.943344193,-4.106436079,2
1.61696E+18,-73.2626145,-5.893321541,1.151154487,-2.855774923,2
1.61696E+18,-73.2526814,-6.173526138,1.643907024,-1.694199872,2
1.61696E+18,-73.24274854,-5.947210952,1.848791884,-0.381509546,2
1.61696E+18,-73.23281567,-1.355668759,2.402172201,0.315998671,2
1.61696E+18,-73.22288257,0.654245414,2.22310392,1.204982523,2
1.61696E+18,-73.21295044,-0.359973751,1.050455978,1.921870272,2
1.61696E+18,-73.20301758,-0.85441552,0.188317171,2.236838723,2
1.61696E+18,-73.19308447,-0.431278918,-0.247265034,2.161141677,2
1.61696E+18,-73.18315161,0.249296266,-0.522608747,1.56035342,2
1.61696E+18,-73.17321851,0.551929534,-0.557774168,0.819914115,2
1.61696E+18,-73.1632854,0.171430918,-0.3985808,0.169687874,2
1.61696E+18,-73.15335254,-0.453885339,-0.079826985,-0.247158651,2
1.61696E+18,-73.14342041,-1.005931777,0.377145214,-0.444655446,2
1.61696E+18,-73.1334873,-1.342701726,0.739226714,-0.536992954,2
1.61696E+18,-73.12355444,-1.411986274,0.946862333,-0.544969047,2
1.61696E+18,-73.11362158,-1.354540632,0.876445565,-0.42002837,2
1.61696E+18,-73.10368848,-1.495918357,0.941091348,-0.191718796,2
1.61696E+18,-73.09375537,-1.512170988,1.057434001,0.027775311,2
1.61696E+18,-73.08382373,-1.049344218,0.994742859,0.230434019,2
1.61696E+18,-73.07389063,-0.283170424,0.832150497,0.245535288,2
1.61696E+18,-73.06395752,0.319581498,0.564892476,0.070838208,2
1.61696E+18,-73.05402441,0.469234226,0.382118326,-0.279723535,2
1.61696E+18,-73.04409131,0.475471732,0.184906486,-0.814056037,2
1.61696E+18,-73.03415869,0.298847922,-0.136990304,-1.267577219,2
1.61696E+18,-73.02422656,0.228613525,-0.550140897,-1.592299879,2
1.61696E+18,-73.0142937,0.31109424,-1.340637194,-1.668496107,2
1.61696E+18,-73.0043606,0.444654569,-2.500424485,-1.19014122,2
1.61696E+18,-72.99442773,0.471599129,-3.596367957,-0.406615054,2
1.61696E+18,-72.98449438,0.675436963,-3.970472488,0.035732408,2
1.61696E+18,-72.97456152,0.244364783,-4.025633234,0.463435111,2
1.61696E+18,-72.96462964,-0.472021007,-3.703852765,1.191753916,2
1.61696E+18,-72.95469678,-0.60357102,-2.74306712,1.934539199,2
1.61696E+18,-72.94476367,-0.438609152,-1.64996384,2.807818994,2
1.61696E+18,-72.93483057,-0.352699339,-0.57964347,3.646342533,2
1.61696E+18,-72.92489771,-0.376815543,0.462748444,4.346334384,2
1.61696E+18,-72.91496484,-1.226684652,1.504090557,4.964289464,2
1.61696E+18,-72.90503174,-2.625278361,2.638944482,5.296703556,2
1.61696E+18,-72.89509961,-3.480922546,3.410238652,4.551161667,2
1.61696E+18,-72.8851665,-3.27196883,2.832372128,2.511868255,2
1.61696E+18,-72.87523364,-2.432582536,1.190978548,0.232855401,2
1.61696E+18,-72.86530078,-1.408234521,-0.367539765,-1.471282659,2
1.61696E+18,-72.85536768,-0.272456759,-1.786675327,-2.578095754,2
1.61696E+18,-72.84543457,0.850358061,-3.135296506,-3.001296032,2
1.61696E+18,-72.83550269,1.315946697,-3.967230145,-2.728848625,2
1.61696E+18,-72.82556958,1.001117362,-3.863197523,-1.916093588,2
1.61696E+18,-72.81563672,0.29162177,-2.744233241,-0.701831049,2
1.61696E+18,-72.80570361,-0.792239342,-0.732070997,0.897414411,2
1.61696E+18,-72.79577051,-1.962368578,1.636848338,2.615361655,2
1.61696E+18,-72.78583765,-3.707083125,3.670014792,3.800904441,2
1.61696E+18,-72.77590552,-5.50650249,4.677756249,3.47016442,2
1.61696E+18,-72.76597266,-7.038065577,4.529346141,1.659812596,2
1.61696E+18,-72.75603979,-7.20717945,3.013497342,-0.280496419,2
1.61696E+18,-72.74610669,-1.059073585,0.068604165,-1.647479038,2
1.61696E+18,-72.73617358,5.151285031,-3.403354737,-2.03823499,2
1.61696E+18,-72.72624072,4.074270131,-5.907292783,-0.897796104,2
1.61696E+18,-72.71630859,4.984000711,-6.263784501,1.319516957,2
1.61696E+18,-72.70637573,7.058180144,-6.34942631,3.543080019,2
1.61696E+18,-72.69644263,2.401314707,-6.185834415,2.594435479,2
1.61696E+18,-72.68650952,1.399916482,-4.445044641,-0.520717234,2
1.61696E+18,-72.67657642,4.595488885,-2.363700139,-0.83438337,2
1.61696E+18,-72.6666438,5.194190107,-0.066485858,0.225055248,2
1.61696E+18,-72.65671167,4.084830688,3.544709081,-0.559825255,2
1.61696E+18,-72.64677856,2.701298063,10.15801078,-4.034293803,2
1.61696E+18,-72.63684546,-1.4556372,19.41417911,-7.662980267,2
1.61696E+18,-72.6269126,-5.336401944,30.99991968,-10.65481698,2
1.61696E+18,-72.61697974,-5.941728137,37.42688983,-10.10739119,2
1.61696E+18,-72.60704663,-5.263654103,36.92515963,-5.355557896,2
1.61696E+18,-72.5971145,-6.917814226,32.52608763,-1.363444362,2
1.61696E+18,-72.58718164,-6.44192573,24.79648005,0.875676919,2
1.61696E+18,-72.57724854,-6.836589649,19.40884944,1.146774957,2
1.61696E+18,-72.56731567,-9.098426912,15.91362598,-0.00412877,2
1.61696E+18,-72.55738257,-9.696616092,12.89271749,-2.329221531,2
1.61696E+18,-72.54744971,-10.16230001,10.2230482,-3.946320336,2
1.61696E+18,-72.53751758,-9.575555764,7.113930088,-4.740229364,2
1.61696E+18,-72.52758447,-7.437083599,3.427897642,-5.571555685,2
1.61696E+18,-72.51765137,-2.656851895,0.882393076,-6.761193924,2
1.61696E+18,-72.50771875,-6.826020909,0.092628599,-8.085338249,2
1.61696E+18,-72.49778564,-13.60364691,-0.464700163,-4.795549685,2
1.61696E+18,-72.48785254,-3.725305302,-0.925347836,3.595943886,2
1.61696E+18,-72.47792041,7.626158895,-1.958715317,8.903864125,2
1.61696E+18,-72.46798755,7.66469993,-4.408469937,10.40443469,2
1.61696E+18,-72.45805469,11.0217354,-6.808774006,6.312311508,2
1.61696E+18,-72.44812158,18.62855597,-9.017651247,0.230639186,2
1.61696E+18,-72.43818848,23.48004323,-9.151330235,-3.856568461,2
1.61696E+18,-72.42825537,18.66241616,-6.483707355,-7.1696397,2
1.61696E+18,-72.41832349,1.767683626,-3.883386325,-10.84105384,2
1.61696E+18,-72.40839063,-2.826672455,-4.783277063,-11.53934707,2
1.61696E+18,-72.39845752,1.585181279,-5.652501445,-5.816878353,2
1.61696E+18,-72.38852466,19.01322632,-7.824055795,3.399937038,2
1.61696E+18,-72.37859155,23.9627227,-12.18141514,11.75538519,2
1.61696E+18,-72.36865845,20.38951467,-12.1207254,14.51517724,2
1.61696E+18,-72.35872632,17.57788957,-10.62949549,10.34375781,2
1.61696E+18,-72.3487937,15.99014107,-13.70375915,5.494827835,2
1.61696E+18,-72.3388606,15.16484058,-15.88259605,2.805940048,2
1.61696E+18,-72.32892749,17.22650423,-16.09317942,1.990609169,2
1.61696E+18,-72.31899438,16.28448174,-16.78390893,1.718583788,2
1.61696E+18,-72.30906128,13.61102942,-16.91975065,1.071910635,2
1.61696E+18,-72.29912842,12.3632751,-16.09587406,0.416095999,2
1.61696E+18,-72.28919629,11.30601879,-14.44373112,-0.54024874,2
1.61696E+18,-72.27926318,10.16040031,-12.67626436,-1.312970312,2
1.61696E+18,-72.26933008,8.640631706,-11.34754439,-1.103994676,2
1.61696E+18,-72.25939746,6.996128469,-10.25363973,-0.267145793,2
1.61696E+18,-72.24946436,5.602224964,-8.903342147,0.990994759,2
1.61696E+18,-72.23953125,4.120376926,-7.792383476,2.792937943,2
1.61696E+18,-72.22959912,3.194756118,-6.715385528,4.716992866,2
1.61696E+18,-72.21966626,3.263713042,-6.080430505,5.853140922,2
1.61696E+18,-72.2097334,4.746968609,-6.378558296,5.516520026,2
1.61696E+18,-72.19980029,6.82911303,-6.473115818,4.411034235,2
1.61696E+18,-72.18986719,7.672906033,-5.590677734,2.292451889,2
1.61696E+18,-72.17993433,5.970277355,-5.356624064,1.060736842,2
1.61696E+18,-72.1700022,2.295011803,-5.31589224,0.509356174,2
1.61696E+18,-72.16006909,-1.676318763,-2.573420163,0.205925016,2
1.61696E+18,-72.15013623,-7.479199571,1.649263583,-0.503151474,2
1.61696E+18,-72.14020337,-16.27058181,5.796121396,-0.919834625,2
1.61696E+18,-72.13027026,-25.25402742,8.908750728,-1.182466156,2
1.61696E+18,-72.12033716,-21.58739409,9.221339006,-0.439286613,2
1.61696E+18,-72.11040503,-14.96486395,9.689891168,1.906651367,2
1.61696E+18,-72.10047241,-0.284420168,11.84055704,0.577764817,2
1.61696E+18,-72.09053931,20.91358765,12.12930384,-4.236018152,2
1.61696E+18,-72.0806062,13.15492933,13.44569624,-10.34905358,2
1.61696E+18,-72.0706731,-6.321438817,25.01777536,-16.14555492,2
1.61696E+18,-72.06074023,-14.75700446,27.57997329,-8.958228168,2
1.61696E+18,-72.05080835,6.289699279,18.33517742,-3.824723708,2
1.61696E+18,-72.04087524,17.21522413,12.63782386,-4.985642049,2
1.61696E+18,-72.03094214,-4.639023198,13.18465344,-5.976805296,2
1.61696E+18,-72.02100903,9.591781507,14.87943023,-2.322267474,2
1.61696E+18,-72.01107617,6.965746775,13.82003224,-1.762892008,2
1.61696E+18,-72.00114429,-10.06599769,16.07462435,-3.589903437,2
1.61696E+18,-71.99121143,-17.17326598,21.32579482,-4.305056032,2
1.61696E+18,-71.98127856,-0.285531637,19.87048496,-3.048094608,2
1.61696E+18,-71.97134546,6.09173399,10.32992335,-1.945591777,2
1.61696E+18,-71.96141235,-0.021101532,6.959120635,-2.396333996,2
1.61696E+18,-71.95147925,-3.113711866,5.295893408,-2.769988737,2
1.61696E+18,-71.94154761,-1.571275503,3.116421709,-3.783190797,2
1.61696E+18,-71.9316145,0.614236644,1.251063306,-4.140244825,2
1.61696E+18,-71.9216814,1.07515349,-0.36795653,-4.317211749,2
1.61696E+18,-71.91174829,0.296038125,-1.349262399,-4.075212673,2
1.61696E+18,-71.90181567,-0.246656401,-1.921480103,-3.119692109,2
1.61696E+18,-71.89188257,-0.47389703,-2.212301955,-1.326075585,2
1.61696E+18,-71.88195044,-0.330202261,-2.484106387,0.894492094,2
1.61696E+18,-71.87201733,-0.268324627,-2.803779071,3.012399317,2
1.61696E+18,-71.86208447,-0.415386389,-3.117897043,4.622411086,2
1.61696E+18,-71.85215137,-0.398148108,-3.661214815,5.380750205,2
1.61696E+18,-71.84221851,-0.210030259,-4.482641673,5.62712092,2
1.61696E+18,-71.8322854,-0.004640958,-5.282849802,5.673763429,2
1.61696E+18,-71.82235352,0.336985199,-5.811480293,5.549188955,2
1.61696E+18,-71.81242041,0.933704891,-5.992891338,5.050311212,2
1.61696E+18,-71.8024873,1.418134276,-6.003209318,4.083188182,2
1.61696E+18,-71.79255444,1.707877246,-5.745609937,3.019568478,2
1.61696E+18,-71.78262134,1.77354945,-5.323728925,1.98785724,2
1.61696E+18,-71.77268848,1.662781967,-4.847168228,1.176720305,2
1.61696E+18,-71.76275635,1.444636644,-4.250723261,0.310389891,2
1.61696E+18,-71.75282324,0.905825535,-4.023601436,-0.534015691,2
1.61696E+18,-71.74289038,0.133874364,-4.03783922,-0.993100645,2
1.61696E+18,-71.73295752,-0.705522597,-3.959608564,-1.413329798,2
1.61696E+18,-71.72302441,-1.704557308,-4.039613244,-1.920472972,2
1.61696E+18,-71.71309131,-2.665270179,-4.365389505,-1.926127929,2
1.61696E+18,-71.70315918,-3.707086632,-4.577543478,-1.651039653,2
1.61696E+18,-71.69322632,-4.925556706,-4.569311657,-1.315525549,2
1.61696E+18,-71.68329346,-5.167554613,-4.241777154,-1.229302141,2
1.61696E+18,-71.67336035,-3.852317233,-3.874892053,-1.294982528,2
1.61696E+18,-71.66342725,-2.216546753,-3.538262974,-0.952461468,2
1.61696E+18,-71.65349438,-0.549791353,-3.494531384,0.313599793,2
1.61696E+18,-71.64356226,1.722113423,-3.189278271,1.941073277,2
1.61696E+18,-71.63362939,0.885772781,-1.889784988,3.18272958,2
1.61696E+18,-71.62369629,-1.658178711,0.746779906,3.507981525,2
1.61696E+18,-71.61376343,-3.337340881,3.476055232,3.436079195,2
1.61696E+18,-71.60383032,-2.798688177,5.2539148,3.450510456,2
1.61696E+18,-71.59389746,-0.960171896,4.949837745,3.277978299,2
1.61696E+18,-71.58396533,-0.53606824,3.122187433,2.436448272,2
1.61696E+18,-71.57403247,-0.034027065,1.542137672,2.663908536,2
1.61696E+18,-71.56409937,3.179340815,0.449286905,3.872752703,2
1.61696E+18,-71.55416626,4.717984215,-0.664462272,3.298106603,2
1.61696E+18,-71.54423315,3.674916008,-0.789255942,0.374006916,2
1.61696E+18,-71.53430054,1.87989897,0.25897593,-2.905531472,2
1.61696E+18,-71.52436841,-0.999224973,1.80784671,-5.21662055,2
1.61696E+18,-71.5144353,5.571248226,3.556869475,-6.334406435,2
1.61696E+18,-71.5045022,4.659394663,8.313300032,-9.072675215,2
1.61696E+18,-71.49456934,1.992315973,16.28082146,-13.97922444,2
1.61696E+18,-71.48463647,-6.81834146,20.25867763,-12.37994215,2
1.61696E+18,-71.47470435,-11.15169332,22.45015073,-5.756968951,2
1.61696E+18,-71.46477124,-11.88636369,28.61946364,0.138696523,2
1.61696E+18,-71.45483838,-11.62170153,36.30995735,2.208850353,2
1.61696E+18,-71.44490527,-4.801788872,36.67086688,2.59378929,2
1.61696E+18,-71.43497241,-3.241647341,29.98470102,2.551432203,2
1.61696E+18,-71.42503931,-6.819635007,21.32724911,1.774952156,2
1.61696E+18,-71.41510742,-8.544087394,16.4016246,0.054834583,2
1.61696E+18,-71.40517432,-9.160442346,14.08782861,-1.749120965,2
1.61696E+18,-71.39524121,-11.28021449,10.95028111,-2.525398183,2
1.61696E+18,-71.38530811,-12.48781099,5.306124879,-2.942551582,2
1.61696E+18,-71.37537524,-8.895323091,2.00275378,-6.074070907,2
1.61696E+18,-71.36544238,-4.005094888,1.569984879,-12.24769992,2
1.61696E+18,-71.35551025,-15.26605756,6.56987991,-19.09344494,2
1.61696E+18,-71.34557715,-24.30724224,9.781760473,-17.72881429,2
1.61696E+18,-71.33564404,-12.22459962,7.702855181,-6.894800431,2
1.61696E+18,-71.32571143,9.778336929,1.15724579,0.313194427,2
1.61696E+18,-71.31577832,24.06510756,-6.015628655,5.561739224,2
1.61696E+18,-71.30584204,20.52791309,-11.08336973,6.200455061,2
1.61696E+18,-71.29590991,22.05764662,-10.32942183,3.765725576,2
1.61696E+18,-71.28597681,25.32797879,-7.038779278,3.490296523,2
1.61696E+18,-71.2760437,22.14131509,-5.74624882,4.7040308,2
1.61696E+18,-71.26611108,17.29629498,-3.780815008,3.044921531,2
1.61696E+18,-71.25617798,11.11874733,-2.377315407,0.226146843,2
1.61696E+18,-71.24624487,-1.61251703,-1.550054436,-2.554728322,2
1.61696E+18,-71.23631274,-10.75114151,-0.531022939,-4.665519868,2
1.61696E+18,-71.22637988,-0.370070745,-1.139782614,-2.241801314,2
1.61696E+18,-71.21644702,12.48033729,-4.527241863,2.203601347,2
1.61696E+18,-71.20651392,14.92696823,-7.154751343,5.57084666,2
1.61696E+18,-71.19658081,15.51295493,-8.07908328,5.856614736,2
1.61696E+18,-71.18664893,15.33818172,-7.074362048,6.529663635,2
1.61696E+18,-71.17671582,18.96776455,-7.66976832,9.464805817,2
1.61696E+18,-71.16678296,20.22276227,-10.90056752,12.45899172,2
1.61696E+18,-71.15684985,23.12408343,-13.99423496,10.69147936,2
1.61696E+18,-71.14691675,21.76839246,-15.99722664,6.153872174,2
1.61696E+18,-71.13698389,18.18934272,-18.43790364,1.585668478,2
1.61696E+18,-71.12705176,18.41791533,-18.9783818,-1.191453764,2
1.61696E+18,-71.11711865,18.71605189,-16.98265924,-1.232132688,2
1.61696E+18,-71.10718604,17.69055499,-14.40170985,0.308542802,2
1.61696E+18,-71.09725293,16.38852079,-11.88869944,2.471077979,2
1.61696E+18,-71.08731982,14.65300983,-9.497323354,4.630927278,2
1.61696E+18,-71.07738672,13.27135674,-7.67536161,6.005742052,2
1.61696E+18,-71.06745483,11.85146656,-6.310522871,6.560525221,2
1.61696E+18,-71.05752197,10.2932598,-5.465307726,6.33446781,2
1.61696E+18,-71.04758887,8.329820374,-5.239969276,5.559373664,2
1.61696E+18,-71.03765576,6.19539544,-5.687306801,4.914769354,2
1.61696E+18,-71.02772266,4.230642596,-6.840491917,4.868461776,2
1.61696E+18,-71.01779004,2.497740945,-8.150287399,5.134730202,2
1.61696E+18,-71.00785791,1.532272696,-9.362737773,5.40193094,2
1.61696E+18,-70.9979248,4.189533172,-9.867297653,5.745480758,2
1.61696E+18,-70.9879917,9.439053536,-8.287828322,5.754457845,2
1.61696E+18,-70.97805884,13.51772219,-5.250466121,4.478144654,2
1.61696E+18,-70.96812598,13.8582553,-2.908155976,2.733603419,2
1.61696E+18,-70.9581936,9.80411902,-2.072124838,1.01487467,2
1.61696E+18,-70.94826074,1.407820095,-0.908652722,-0.742149323,2
1.61696E+18,-70.93832788,-8.65818899,0.987880572,-0.796516873,2
1.61696E+18,-70.92839478,-14.19007668,3.818779705,2.043506939,2
1.61696E+18,-70.91846167,-10.46003324,6.360207232,5.935346327,2
1.61696E+18,-70.90852881,1.333870769,7.006121455,6.205990483,2
1.61696E+18,-70.89859692,9.940257675,5.368603255,2.209197559,2
1.61696E+18,-70.88866382,9.606106969,4.682178157,-4.030937478,2
1.61696E+18,-70.87873071,1.99363027,9.663869423,-10.90819319,2
1.61696E+18,-70.86879761,-7.745343493,23.62262916,-19.86769094,2
1.61696E+18,-70.85886499,0.238325064,32.45470816,-23.44856556,2
1.61696E+18,-70.84893286,8.399142917,26.26917828,-23.9570131,2
1.61696E+18,-70.83899976,-8.583947111,21.53271791,-23.46329551,2
1.61696E+18,-70.82906665,-17.93311404,28.98932337,-12.88502284,2
1.61696E+18,-70.81913379,-1.805549831,32.8218674,-3.544379411,2
1.61696E+18,-70.80920093,8.268980998,32.59811476,1.764714986,2
1.61696E+18,-70.79926782,-7.657448352,28.2633051,10.529748,2
1.61696E+18,-70.78933569,-14.94990604,26.26088508,12.53737611,2
1.61696E+18,-70.77940283,-8.923674156,21.92633261,2.863212964,2
1.61696E+18,-70.76946973,-5.182810634,13.48796185,-4.449530262,2
1.61696E+18,-70.75953662,-1.777690933,8.242184177,-7.620777787,2
1.61696E+18,-70.74960376,0.410835886,4.462925166,-9.133398857,2
1.61696E+18,-70.7396709,0.628696547,1.323137778,-9.779865453,2
1.61696E+18,-70.72973877,0.591227525,-1.052252799,-7.892916565,2
1.61696E+18,-70.71980566,1.559359148,-2.484251349,-4.193354776,2
1.61696E+18,-70.70987256,3.27928529,-3.046370268,-0.36618572,2
1.61696E+18,-70.69993994,4.667312304,-3.0012557,2.778677363,2
1.61696E+18,-70.69000684,5.360611672,-2.043102742,6.030283788,2
1.61696E+18,-70.68007495,4.860580083,-0.022121815,8.424812196,2
1.61696E+18,-70.6701416,2.284034043,1.051249759,8.788619204,2
1.61696E+18,-70.66020874,0.256994401,-0.052931964,7.547813088,2
1.61696E+18,-70.65027588,-0.178291305,-1.700626691,5.84756809,2
1.61696E+18,-70.64034277,0.060085343,-3.24625805,4.514567382,2
1.61696E+18,-70.63040967,0.181617965,-5.089822554,3.682427407,2
1.61696E+18,-70.62047803,-0.067499127,-6.89667207,3.221124777,2
1.61696E+18,-70.61054492,-0.280917129,-8.014173878,2.840938589,2
1.61696E+18,-70.60061182,-0.034942134,-8.485297936,2.337975038,2
1.61696E+18,-70.59067896,0.491187188,-8.61577842,1.53954181,2
1.61696E+18,-70.58074585,0.999185079,-8.765615345,0.365926485,2
1.61696E+18,-70.57081274,1.440644214,-8.933134643,-0.807871211,2
1.61696E+18,-70.56088086,1.617030854,-9.060787794,-1.425524678,2
1.61696E+18,-70.55094775,1.574993209,-9.376032724,-1.567051018,2
1.61696E+18,-70.54101514,1.173506166,-9.653684129,-1.698984038,2
1.61696E+18,-70.53108203,0.060903674,-9.543415243,-2.597109374,2
1.61696E+18,-70.52114893,-0.58720353,-8.813924326,-3.596161036,2
1.61696E+18,-70.5112168,0.57054261,-8.029393074,-4.014135688,2
1.61696E+18,-70.50128394,0.721554863,-7.426774387,-3.412762909,2
1.61696E+18,-70.49135083,-0.255966227,-5.676368643,-1.336001059,2
1.61696E+18,-70.48141797,0.612187165,-2.293286294,1.124764785,2
1.61696E+18,-70.47148486,1.711023143,2.35375976,3.206016056,2
1.61696E+18,-70.46155176,3.080419837,7.367994866,4.099704432,2
1.61696E+18,-70.45161987,4.295891021,13.12482178,3.675954704,2
1.61696E+18,-70.44168677,5.123335532,19.3860262,0.768676388,2
1.61696E+18,-70.43175391,5.697243089,23.15613861,-3.284431421,2
1.61696E+18,-70.42182104,4.80514052,20.14947024,-5.42117983,2
1.61696E+18,-70.41188794,1.78128662,11.72692365,-4.691879759,2
1.61696E+18,-70.40195581,-1.361304135,5.449958181,-4.707957034,2
1.61696E+18,-70.39202271,-3.292023776,1.127441018,-5.54575898,2
1.61696E+18,-70.38209009,-3.373430139,-2.404714871,-5.726401963,2
1.61696E+18,-70.37215698,-2.065503959,-5.1873512,-4.905134095,2
1.61696E+18,-70.36222388,-1.478401989,-7.656130839,-3.388953872,2
1.61696E+18,-70.35229077,-1.383996882,-9.787344996,-2.047772195,2
1.61696E+18,-70.34235889,-2.03509713,-10.78562129,-0.756494075,2
1.61696E+18,-70.33242578,-3.295368994,-10.2328705,1.017738242,2
1.61696E+18,-70.32249292,-4.510595264,-8.531980777,2.629111363,2
1.61696E+18,-70.31256348,-5.909745437,-6.418972724,4.170405277,2
1.61696E+18,-70.30263037,-7.943253837,-4.595644368,5.713854616,2
1.61696E+18,-70.29269849,-10.2916699,-3.258355315,7.221665071,2
1.61696E+18,-70.28276538,-11.72095217,-2.377458615,8.374434008,2
1.61696E+18,-70.27283252,-11.28123155,-1.882969463,8.945275162,2
1.61696E+18,-70.26289941,-9.079686556,-1.801690525,9.198770616,2
1.61696E+18,-70.25296631,-5.950066342,-2.349438389,8.840806488,2
1.61696E+18,-70.24303345,-3.603791385,-3.261218303,8.268425702,2
1.61696E+18,-70.23310132,-2.596532743,-4.104822506,7.194116555,2
1.61696E+18,-70.22316846,-2.43527952,-4.861809917,5.542897161,2
1.61696E+18,-70.21323535,-2.101468714,-5.337076483,3.541394258,2
1.61696E+18,-70.20330249,-1.854458239,-5.625094967,0.806495831,2
1.61696E+18,-70.19336938,-0.171554544,-5.692060133,-2.942601266,2
1.61696E+18,-70.18343726,5.980281447,-5.658526112,-5.40079989,2
1.61696E+18,-70.17350415,8.531612528,-4.673055524,-5.086699454,2
1.61696E+18,-70.16357153,8.954027209,-2.372063478,-2.564168351,2
1.61696E+18,-70.15363843,8.047114024,-0.610740619,0.137753981,2
1.61696E+18,-70.14370532,-0.635252544,0.538881251,-1.953099815,2
1.61696E+18,-70.13377222,1.452162802,3.708782038,-5.082701908,2
1.61696E+18,-70.12384033,10.55991167,10.17938909,-7.972801418,2
1.61696E+18,-70.11390747,4.149336186,22.16980702,-14.89245572,2
1.61696E+18,-70.10397437,0.652567836,35.02891216,-19.81734023,2
1.61696E+18,-70.09404126,-6.285944895,35.91468027,-12.41668403,2
1.61696E+18,-70.0841084,-5.067428351,35.6749468,-1.069658399,2
1.61696E+18,-70.07417627,-6.138021109,38.74673559,2.206609589,2
1.61696E+18,-70.06424341,-4.907119716,33.52085738,1.352495828,2
1.61696E+18,-70.0543103,-1.185559299,25.30790865,0.150562171,2
1.61696E+18,-70.04437744,-1.431291863,19.65604492,-1.221152445,2
1.61696E+18,-70.03444434,-2.448555182,16.32352196,-3.130368402,2
1.61696E+18,-70.02451221,-2.359143791,14.24813023,-5.665044701,2
1.61696E+18,-70.0145791,-3.981131829,12.82599315,-8.285029631,2
1.61696E+18,-70.00464648,-9.212463625,10.18792661,-7.84965084,2
1.61696E+18,-69.99471338,-19.22795511,6.19221681,-4.105505812,2
1.61696E+18,-69.98478027,-23.05011569,1.629533047,-2.647982652,2
1.61696E+18,-69.97484717,-14.61384219,1.80456345,-11.15856496,2
1.61696E+18,-69.96491528,-15.61676953,8.503976918,-20.57825212,2
1.61696E+18,-69.95498242,-25.76669754,16.43676138,-18.34705257,2
1.61696E+18,-69.94504932,-30.84262718,14.73904444,-5.870456214,2
1.61696E+18,-69.93511621,-7.120844398,6.303924788,9.774549227,2
1.61696E+18,-69.92518335,23.86037526,-5.187910003,20.58711814,2
1.61696E+18,-69.91525122,27.05252646,-14.28019359,21.79156291,2
1.61696E+18,-69.90531812,22.09556105,-14.08955996,8.591791979,2
1.61696E+18,-69.89538525,22.55075397,-10.21397291,-5.18679532,2
1.61696E+18,-69.88545239,19.73634186,-9.544556814,-7.503456645,2
1.61696E+18,-69.87551929,16.35201155,-7.867568774,-6.316487917,2
1.61696E+18,-69.86558618,13.45934599,-5.438847589,-2.671792275,2
1.61696E+18,-69.85565405,4.302409609,-2.076045227,-1.495814604,2
1.61696E+18,-69.84572144,-5.932395661,1.163328324,-3.861021933,2
1.61696E+18,-69.83578833,-10.29883029,0.842038269,-5.478372374,2
1.61696E+18,-69.82585522,1.591502883,1.2929934,-2.856489501,2
1.61696E+18,-69.81592212,11.65819907,1.591803912,2.983432166,2
1.61696E+18,-69.80599023,15.30723479,0.175557058,6.456212029,2
1.61696E+18,-69.79605737,11.77271042,-0.573893528,5.311239446,2
1.61696E+18,-69.78612427,4.715913838,0.573095656,3.77736779,2
1.61696E+18,-69.77619116,18.01659896,-4.170445902,4.741645076,2
1.61696E+18,-69.76625806,24.08175007,-9.307776934,5.314190112,2
1.61696E+18,-69.75632617,22.59799503,-11.55315231,1.847349722,2
1.61696E+18,-69.74639307,22.22264079,-15.20730844,-2.450438365,2
1.61696E+18,-69.73646021,20.96818901,-19.20022072,-5.336093901,2
1.61696E+18,-69.72652734,21.58793419,-21.99546051,-6.174479493,2
1.61696E+18,-69.71659424,21.00803703,-23.35385899,-5.380648498,2
1.61696E+18,-69.70666113,18.62067428,-22.58570604,-4.009670526,2
1.61696E+18,-69.69672925,17.04414743,-19.11744307,-2.436139791,2
1.61696E+18,-69.68679663,15.66760773,-14.94472601,-1.13172118,2
1.61696E+18,-69.67686328,13.40769998,-11.14958203,0.051443187,2
1.61696E+18,-69.66693018,11.6508493,-8.466562841,1.013475032,2
1.61696E+18,-69.65699707,10.46924765,-7.613916669,2.075534354,2
1.61696E+18,-69.64706543,9.562709726,-7.459197232,3.051994245,2
1.61696E+18,-69.63713257,8.000733381,-7.383319276,3.481674825,2
1.61696E+18,-69.62719946,5.844911438,-7.400679576,3.632796822,2
1.61696E+18,-69.61726636,3.459768114,-7.985041891,4.335661014,2
1.61696E+18,-69.6073335,1.682507973,-9.161622496,4.946227153,2
1.61696E+18,-69.59740137,2.416914135,-10.84199492,4.508748759,2
1.61696E+18,-69.58746826,5.873280624,-11.10602112,2.761364994,2
1.61696E+18,-69.5775354,7.382709035,-9.354265129,1.456344471,2
1.61696E+18,-69.56760254,6.372943964,-6.237521932,1.761804797,2
1.61696E+18,-69.55766943,5.943824233,-3.251277339,1.487343421,2
1.61696E+18,-69.54773633,4.702270513,-1.487791749,0.790182702,2
1.61696E+18,-69.5378042,0.521119458,-0.767825032,1.272328651,2
1.61696E+18,-69.52787158,-8.321164774,3.864274213,2.266005488,2
1.61696E+18,-69.51793848,-21.28399449,15.27571971,1.098390865,2
1.61696E+18,-69.50800537,-36.56739482,29.10073558,-3.419357778,2
1.61696E+18,-69.49807227,-24.16579964,29.82988923,-9.630444707,2
1.61696E+18,-69.48814038,19.67473091,16.20580626,-12.86706516,2
1.61696E+18,-69.47820752,40.99713083,8.155501334,-17.65595948,2
1.61696E+18,-69.46827441,12.76309976,14.49362241,-20.73083103,2
1.61696E+18,-69.45834131,-42.32350452,19.5428581,-12.68101418,2
1.61696E+18,-69.4484082,-13.76447928,18.68124478,1.869583912,2
1.61696E+18,-69.43847632,38.62324949,19.61472857,3.677418054,2
1.61696E+18,-69.42854321,-7.653310521,19.71887167,4.391557965,2
1.61696E+18,-69.41861035,1.404525437,29.21533461,5.589813811,2
1.61696E+18,-69.40867749,6.38947775,31.10356944,10.01284127,2
1.61696E+18,-69.39874438,-1.834775633,20.04508632,5.894872862,2
1.61696E+18,-69.38881226,-8.181487423,15.1406215,4.224016164,2
1.61696E+18,-69.37887915,-11.45595099,14.90970847,2.79411517,2
1.61696E+18,-69.36894653,-15.05327289,15.78725469,0.475227987,2
1.61696E+18,-69.35901343,-7.92667212,12.08259587,-3.648318509,2
1.61696E+18,-69.34908032,-2.713806831,7.209241643,-5.536724026,2
1.61696E+18,-69.33914722,-5.204200628,3.643621291,-5.426641018,2
1.61696E+18,-69.32921533,-5.728257236,0.939732919,-5.41967001,2
1.61696E+18,-69.31928247,-4.27256246,-1.270287062,-4.759738951,2
1.61696E+18,-69.30934839,-3.007982378,-2.463677932,-3.0579023,2
1.61696E+18,-69.29941528,-1.700548657,-2.401911504,-0.683346859,2
1.61696E+18,-69.28948218,-1.192722761,-1.574541812,1.17038818,2
1.61696E+18,-69.27955029,-0.914405001,-0.879406169,1.895195031,2
1.61696E+18,-69.26961743,-0.81333766,-0.523163458,2.106318492,2
1.61696E+18,-69.25968433,-0.840802297,-0.966187211,2.428282063,2
1.61696E+18,-69.24975122,-0.911110928,-1.855576429,2.822039535,2
1.61696E+18,-69.23981836,-0.744805683,-2.727195013,3.211657569,2
1.61696E+18,-69.22988623,-0.327019977,-3.822492004,3.357294412,2
1.61696E+18,-69.21995337,-0.306586261,-5.296324785,3.302139511,2
1.61696E+18,-69.21002026,-0.428296724,-6.8140499,2.914043572,2
1.61696E+18,-69.2000874,-0.513351527,-7.942921244,2.297699434,2
1.61696E+18,-69.1901543,-0.222864168,-8.649293151,1.699826772,2
1.61696E+18,-69.18022217,-0.223469733,-8.400994098,0.986589363,2
1.61696E+18,-69.17028931,-0.46485265,-7.624191979,0.446139109,2
1.61696E+18,-69.16035645,-0.669698419,-6.634018328,-0.072665423,2
1.61696E+18,-69.15042334,-1.133338917,-5.453676909,-0.377784681,2
1.61696E+18,-69.14049023,-1.561867039,-4.122938008,-0.576278962,2
1.61696E+18,-69.13055811,-1.595249084,-2.614022223,-0.67855568,2
1.61696E+18,-69.12062524,-1.295363636,-1.111602813,-0.803979172,2
1.61696E+18,-69.11069238,-0.589627104,0.141536715,-1.111385225,2
1.61696E+18,-69.10075928,0.224496153,1.05568102,-1.648535269,2
1.61696E+18,-69.09082617,0.833662655,1.492324716,-2.391550561,2
1.61696E+18,-69.08089429,1.26178753,1.710362487,-3.250721459,2
1.61696E+18,-69.07096118,1.611981608,2.191826153,-4.172328354,2
1.61696E+18,-69.06102832,1.520748262,2.945426845,-4.886700321,2
1.61696E+18,-69.05109521,0.882811593,3.580381868,-4.867750413,2
1.61696E+18,-69.04116235,0.368310677,4.107825779,-3.987181338,2
1.61696E+18,-69.03122925,0.578819367,4.546165759,-2.448086833,2
1.61696E+18,-69.02129712,1.097864211,4.422390326,-0.506377743,2
1.61696E+18,-69.01136426,1.603159419,3.973875574,1.182468494,2
1.61696E+18,-69.0014314,2.1037691,3.24509602,2.512430272,2
1.61696E+18,-68.99149829,2.697220146,2.13824537,3.5677711,2
1.61696E+18,-68.98156519,2.734879722,1.112147003,4.330985131,2
1.61696E+18,-68.97163306,2.084347775,0.244853882,4.23994497,2
1.61696E+18,-68.9617002,1.12212903,-0.781380094,3.726260996,2
1.61696E+18,-68.95176733,0.403705888,-1.780236234,3.228547329,2
1.61696E+18,-68.94183423,-0.239306184,-2.461236969,2.825026734,2
1.61696E+18,-68.93190112,-1.486237944,-2.954862782,2.767768139,2
1.61696E+18,-68.92196948,-2.306897763,-3.197116125,3.030724078,2
1.61696E+18,-68.91203638,-1.429194891,-3.593709551,3.635233986,2
1.61696E+18,-68.90210352,0.100076285,-4.502386823,4.715410565,2
1.61696E+18,-68.89217041,1.12874684,-5.652608413,5.263678069,2
1.61696E+18,-68.8822373,2.29898889,-6.736589644,4.638723923,2
1.61696E+18,-68.87230542,2.937624062,-7.431514275,3.309318025,2
1.61696E+18,-68.86237231,2.367768411,-8.172064346,2.290501339,2
1.61696E+18,-68.85243921,1.543933908,-8.806242539,1.407324712,2
1.61696E+18,-68.84250659,0.894945099,-9.27680195,0.324408187,2
1.61696E+18,-68.83257349,0.22130934,-9.254866012,-0.401254988,2
1.61696E+18,-68.82264136,-0.500031004,-8.100812881,-0.29625206,2
1.61696E+18,-68.81270825,-1.914883774,-5.776417163,0.082313834,2
1.61696E+18,-68.80277539,-3.86107717,-3.309228008,0.478085422,2
1.61696E+18,-68.79284253,-5.186096816,-0.81534783,0.935714916,2
1.61696E+18,-68.78290942,-5.447646981,1.882846129,1.146367545,2
1.61696E+18,-68.77297729,-4.443284646,4.739401681,1.746207415,2
1.61696E+18,-68.76304443,-2.614966226,8.386902444,3.022549832,2
1.61696E+18,-68.75311133,-1.781159778,11.28076511,3.745914375,2
1.61696E+18,-68.74317847,-1.644624525,10.59274543,2.487835637,2
1.61696E+18,-68.73324536,0.26129619,7.482539529,0.865814427,2
1.61696E+18,-68.72331348,1.834222676,3.98166199,-1.398671742,2
1.61696E+18,-68.71338037,3.76943992,0.732033587,-4.850515201,2
1.61696E+18,-68.70344727,8.88881444,-1.536179056,-6.60469871,2
1.61696E+18,-68.69351416,10.3104085,-2.338210308,-7.621171754,2
1.61696E+18,-68.68358154,8.436057228,-0.663090984,-11.88312193,2
1.61696E+18,-68.67364941,3.745101013,4.659998474,-15.84033161,2
1.61696E+18,-68.66371631,-3.238592337,11.42260753,-14.65467455,2
1.61696E+18,-68.6537832,-13.57804602,24.63503511,-9.7554792,2
1.61696E+18,-68.64385034,-8.432755848,37.42310681,-4.144828938,2
1.61696E+18,-68.63391748,-1.157035362,42.5288494,4.719247074,2
1.61696E+18,-68.62398535,-5.604526227,43.52573979,10.13743094,2
1.61696E+18,-68.61405225,-8.668481836,35.0801116,10.16720882,2
1.61696E+18,-68.60411938,-7.635501893,23.10646828,6.952103449,2
1.61696E+18,-68.59418628,-6.50887336,15.59718103,0.725543933,2
1.61696E+18,-68.58425342,-6.914632089,12.08260639,-4.953263628,2
1.61696E+18,-68.57432129,-10.26114383,10.00395653,-9.199908095,2
1.61696E+18,-68.56438843,-17.03168659,6.231221371,-11.91387947,2
1.61696E+18,-68.55445532,-20.26641436,2.109171251,-14.09167476,2
1.61696E+18,-68.54452222,-15.38427711,0.972597663,-18.47619683,2
1.61696E+18,-68.53458911,-9.695510177,2.56269594,-20.94347308,2
1.61696E+18,-68.52465723,-10.06376247,5.480024818,-16.31533281,2
1.61696E+18,-68.51472437,-12.03748013,5.825547982,-5.906740995,2
1.61696E+18,-68.50479126,-1.363844613,2.926773582,6.765956608,2
1.61696E+18,-68.49485815,19.70091749,-2.75654678,14.35520061,2
1.61696E+18,-68.48492529,25.42521752,-6.996229007,12.80111706,2
1.61696E+18,-68.47499316,23.58279049,-9.496163663,4.543115431,2
1.61696E+18,-68.4650603,17.3561921,-8.120858475,-4.302859399,2
1.61696E+18,-68.4551272,13.04994452,-5.204378323,-9.589272154,2
1.61696E+18,-68.44519434,17.0497378,-2.777467403,-7.255479078,2
1.61696E+18,-68.43526123,12.82563542,0.882120104,-3.091185269,2
1.61696E+18,-68.4253291,0.554892475,2.50402514,-1.779932867,2
1.61696E+18,-68.41539624,-6.417544737,1.231526247,-2.379936257,2
1.61696E+18,-68.40546338,-2.727007966,-0.302958864,-0.495730238,2
1.61696E+18,-68.39553027,22.51836678,-3.137412475,3.026183512,2
1.61696E+18,-68.38559717,23.52931609,-4.603952177,7.950208478,2
1.61696E+18,-68.37566553,9.095333037,-4.090763001,8.155644542,2
1.61696E+18,-68.36573242,11.94728022,-7.143811432,6.269916135,2
1.61696E+18,-68.35579932,23.45698268,-13.37871704,8.758596991,2
1.61696E+18,-68.34586621,22.38119586,-16.18134987,10.62826917,2
1.61696E+18,-68.33593311,21.10297975,-17.98341566,7.353239195,2
1.61696E+18,-68.32600146,21.2871135,-19.82402949,1.617315955,2
1.61696E+18,-68.31606836,19.49329532,-21.25642844,-3.244825971,2
1.61696E+18,-68.3061355,17.38956129,-22.41305931,-6.927593278,2
1.61696E+18,-68.29620239,15.18435777,-21.9411935,-9.061621907,2
1.61696E+18,-68.28626953,13.85824477,-18.51305562,-8.208629113,2
1.61696E+18,-68.27633765,12.51526365,-14.14608323,-4.116983192,2
1.61696E+18,-68.26640454,12.18852643,-11.02866081,-0.57293546,2
1.61696E+18,-68.25647144,11.04093811,-8.905971326,1.795819587,2
1.61696E+18,-68.24653882,9.510015078,-7.578681105,3.16682737,2
1.61696E+18,-68.23660547,8.586279353,-6.668768154,4.052948819,2
1.61696E+18,-68.22667358,7.444608734,-5.355992195,4.582485319,2
1.61696E+18,-68.21674072,5.542235482,-4.590833168,4.876327687,2
1.61696E+18,-68.20680762,3.121455612,-4.739250875,4.754960193,2
1.61696E+18,-68.19687476,1.857852557,-6.164623869,4.09380573,2
1.61696E+18,-68.18694165,3.800248608,-7.95052412,3.746296653,2
1.61696E+18,-68.17700977,5.582608409,-8.285413662,3.673597327,2
1.61696E+18,-68.16707666,5.563874483,-7.928553696,3.462292372,2
1.61696E+18,-68.15714355,4.106873009,-6.956399685,3.376189082,2
1.61696E+18,-68.14721045,2.251487134,-5.340926728,2.961597351,2
1.61696E+18,-68.13727759,0.090322807,-2.992007979,1.955625388,2
1.61696E+18,-68.1273457,-2.204885541,-0.148151749,0.806958188,2
1.61696E+18,-68.1174126,-5.988916589,2.329641802,-0.127895289,2
1.61696E+18,-68.10747949,-12.3294266,5.271198527,-1.006816743,2
1.61696E+18,-68.09754639,-14.32679986,8.241406178,-2.001757901,2
1.61696E+18,-68.08761377,-7.175700023,6.720684219,-2.932443445,2
1.61696E+18,-68.07768164,1.711690521,4.496377353,-2.733572731,2
1.61696E+18,-68.06774854,13.01856037,4.576081589,-3.952315484,2
1.61696E+18,-68.05781567,10.58597316,10.798268,-6.183589851,2
1.61696E+18,-68.04788257,-16.82163748,27.89847693,-10.34376716,2
1.61696E+18,-68.03794971,-5.951929798,39.02748846,-14.78160816,2
1.61696E+18,-68.02801733,-9.158264418,42.21504532,-20.21235544,2
1.61696E+18,-68.01808472,-10.70018056,27.15469387,-11.69868423,2
1.61696E+18,-68.00815161,11.6709171,20.2098116,-1.536796019,2
1.61696E+18,-67.99821851,9.744120771,20.55174522,-1.34910867,2
1.61696E+18,-67.9882854,-1.101217028,22.86911966,-3.774618784,2
1.61696E+18,-67.97835352,-4.308362965,20.77831525,-3.969624346,2
1.61696E+18,-67.96842065,-1.664113654,14.62961493,-1.180334696,2
1.61696E+18,-67.95848755,-1.788675853,9.16625074,1.329224989,2
1.61696E+18,-67.94855444,-2.541328742,7.271881347,2.836143463,2
1.61696E+18,-67.93862134,-2.851962379,6.548709696,1.729076248,2
1.61696E+18,-67.92868945,-1.856180533,4.925034728,-0.79678473,2
1.61696E+18,-67.91875659,0.924565745,2.888322563,-1.695146213,2
1.61696E+18,-67.90882349,2.534948978,0.429074723,-1.425296568,2
1.61696E+18,-67.89889038,2.800488505,-0.988999347,-1.049889869,2
1.61696E+18,-67.88895752,4.196193799,-1.087898113,-1.974997758,2
1.61696E+18,-67.87902539,9.594067572,-1.321677642,-6.90516868,2
1.61696E+18,-67.86909229,-6.896210297,-3.31120077,1.437333774,2
1.61696E+18,-67.85915967,-4.738057865,-2.127792949,5.107891295,2
1.61696E+18,-67.84922656,-0.904138313,-3.36757323,4.572317268,2
1.61696E+18,-67.83929346,-0.71717263,-4.486846139,4.705419624,2
1.61696E+18,-67.82936133,-0.052699325,-5.374017681,4.73723895,2
1.61696E+18,-67.81942847,-0.670891429,-6.464753648,5.094107684,2
1.61696E+18,-67.80949561,-1.014081181,-7.224240475,5.133884983,2
1.61696E+18,-67.7995625,-0.454734649,-7.975955499,4.994882755,2
1.61696E+18,-67.78963037,0.053175116,-8.391493279,4.457006881,2
1.61696E+18,-67.77969751,0.266240368,-8.564685361,3.536068971,2
1.61696E+18,-67.7697644,0.560664044,-8.252847609,2.258531207,2
1.61696E+18,-67.75983154,0.611947584,-7.722555907,1.181180207,2
1.61696E+18,-67.74989844,0.976728917,-6.593361323,-0.120509124,2
1.61696E+18,-67.7399668,1.081376017,-5.229194784,-1.413409877,2
1.61696E+18,-67.73003369,0.721963956,-3.984462435,-2.456011927,2
1.61696E+18,-67.72010034,0.032924949,-2.432677229,-3.384448377,2
1.61696E+18,-67.71016724,-1.020427701,-0.6285586,-4.148004645,2
1.61696E+18,-67.70023438,-2.360898087,0.796211753,-4.635141096,2
1.61696E+18,-67.69030273,-3.372985903,1.882287326,-4.925840199,2
1.61696E+18,-67.68036963,-3.23853067,3.022596594,-5.422621261,2
1.61696E+18,-67.67043652,-2.873476876,4.326051766,-6.41688072,2
1.61696E+18,-67.66050366,-1.14018608,5.179678766,-6.760065797,2
1.61696E+18,-67.6505708,0.482251748,5.381834493,-5.88692278,2
1.61696E+18,-67.64063867,1.310037473,4.974891522,-4.056469394,2
1.61696E+18,-67.63070557,1.888585403,4.202991204,-1.919684452,2
1.61696E+18,-67.62077271,3.12047946,3.375728479,0.429964365,2
1.61696E+18,-67.6108396,4.152331276,3.34526086,2.663564837,2
1.61696E+18,-67.60090649,4.148312104,3.742501352,3.630552551,2
1.61696E+18,-67.59097437,3.308053704,4.166138268,4.183491554,2
1.61696E+18,-67.58104175,2.651975814,4.162717061,4.569060604,2
1.61696E+18,-67.57110864,2.281365555,3.551431083,4.285000794,2
1.61696E+18,-67.56117554,1.701429824,2.313144841,3.896587167,2
1.61696E+18,-67.55124243,1.166266131,0.940329716,3.370774948,2
1.61696E+18,-67.54131055,0.741136347,-0.428064085,2.7482945,2
1.61696E+18,-67.53137769,0.293427651,-1.616409361,2.095455883,2
1.61696E+18,-67.52144458,-0.430357748,-2.398506079,1.391319918,2
1.61696E+18,-67.51151147,-1.632980557,-2.911680058,0.834234609,2
1.61696E+18,-67.50157861,-2.651979321,-3.352331237,0.463419183,2
1.61696E+18,-67.49164648,-3.204136233,-3.618017479,0.279123815,2
1.61696E+18,-67.48171362,-3.198802471,-3.913012232,0.047381052,2
1.61696E+18,-67.47178052,-2.818457585,-4.115032934,-0.334093423,2
1.61696E+18,-67.46184766,-2.496400636,-4.086093256,-0.615810177,2
1.61696E+18,-67.45191553,-2.828049589,-4.11424383,-0.816971924,2
1.61696E+18,-67.44198242,-3.431262735,-3.970165614,-1.059746662,2
1.61696E+18,-67.43204932,-3.618074762,-3.719902567,-1.430779238,2
1.61696E+18,-67.4221167,-3.06929054,-3.403929907,-2.065912247,2
1.61696E+18,-67.41218359,-1.817063743,-3.039899611,-2.594464705,2
1.61696E+18,-67.40225146,-0.322937823,-2.642345815,-2.08632609,2
1.61696E+18,-67.39231836,-0.086389997,-2.049946324,-0.493563269,2
1.61696E+18,-67.3823855,-0.737946903,-1.781293634,1.065127186,2
1.61696E+18,-67.37245264,-2.016525116,-1.22222475,2.393230185,2
1.61696E+18,-67.36251953,-3.480281617,-0.230783855,3.637831017,2
1.61696E+18,-67.3525874,-4.787210311,0.215184719,3.43173386,2
1.61696E+18,-67.34265454,-6.245880595,0.043337622,1.06525958,2
1.61696E+18,-67.33272144,-3.458990115,-1.140373565,-0.847595611,2
1.61696E+18,-67.32278857,2.418467502,-1.949581578,-0.130210142,2
1.61696E+18,-67.31285547,4.886387017,-1.766205955,3.11517434,2
1.61696E+18,-67.30292432,4.310333973,-1.124230824,6.046786594,2
1.61696E+18,-67.29299121,5.741294997,-2.970929535,8.222892032,2
1.61696E+18,-67.28305811,3.691508247,-3.741233524,9.463654893,2
1.61696E+18,-67.273125,-0.42384559,-3.910133462,7.037069551,2
1.61696E+18,-67.26319214,3.227856132,-2.804680988,2.978921118,2
1.61696E+18,-67.25326001,5.868289976,1.556475409,-1.658131219,2
1.61696E+18,-67.24332715,3.958644395,8.985100392,-9.580205051,2
1.61696E+18,-67.23339429,-0.47003451,22.18916873,-20.39185744,2
1.61696E+18,-67.22346118,-9.808913269,40.20251775,-29.84668371,2
1.61696E+18,-67.21352905,-5.869685814,36.71481592,-18.08700813,2
1.61696E+18,-67.20359595,0.931274011,30.91857995,-0.912252207,2
1.61696E+18,-67.19366333,-5.822015716,32.4810888,5.094842428,2
1.61696E+18,-67.18373022,-4.045684088,28.90033342,3.907760888,2
1.61696E+18,-67.17379712,-2.359694995,23.92516834,1.716862663,2
1.61696E+18,-67.16386499,-5.39444263,18.85410426,0.121010352,2
1.61696E+18,-67.15393213,-10.32365026,14.06141055,-1.4677067,2
1.61696E+18,-67.14399927,-14.77063201,10.9447714,-1.861117989,2
1.61696E+18,-67.13406616,-17.62441985,8.933578879,-1.451563082,2
1.61696E+18,-67.12413306,-16.41542984,5.861701245,-1.71896022,2
1.61696E+18,-67.11420117,-13.0570979,3.837595465,-5.749143372,2
1.61696E+18,-67.10426807,-11.0756365,5.155244582,-12.16271278,2
1.61696E+18,-67.09433496,-22.50931136,8.84905643,-14.3880145,2
1.61696E+18,-67.0844021,-32.29687088,9.325983622,-4.357592567,2
1.61696E+18,-67.07446924,-5.993972704,3.321012554,4.601085682,2
1.61696E+18,-67.06453711,20.46610107,-4.901017308,8.816623648,2
1.61696E+18,-67.054604,24.12949148,-13.74956111,10.23195748,2
1.61696E+18,-67.0446709,19.37038439,-15.15685134,3.308349764,2
1.61696E+18,-67.03473828,17.18164919,-9.639715809,-3.912450507,2
1.61696E+18,-67.0248064,21.01596549,-7.029099011,-7.178733107,2
1.61696E+18,-67.01487305,26.79996858,-4.517207375,-5.858827736,2
1.61696E+18,-67.00493994,27.61962024,-2.562852592,-2.773960856,2
1.61696E+18,-66.99500708,4.090854186,-0.123226567,-1.509525442,2
1.61696E+18,-66.98507422,-12.41198915,1.296449093,-5.036410697,2
1.61696E+18,-66.97514209,-14.32848562,-3.175089003,-4.791300503,2
1.61696E+18,-66.96520923,27.4621594,-6.856015065,7.258900869,2
1.61696E+18,-66.95527637,38.70017491,-13.84622934,20.44132202,2
1.61696E+18,-66.94534326,24.83261286,-15.44777256,23.4727484,2
1.61696E+18,-66.93541016,13.32521459,-15.96187125,12.49571022,2
1.61696E+18,-66.92547803,7.338733115,-19.2279668,0.018644787,2
1.61696E+18,-66.91554541,17.85170183,-21.45225263,-3.820546422,2
1.61696E+18,-66.9056123,17.42712267,-20.20762549,-5.928319789,2
1.61696E+18,-66.8956792,10.31799443,-18.52197659,-7.565296722,2
1.61696E+18,-66.88574609,8.303782847,-16.962955,-8.149321768,2
1.61696E+18,-66.87581421,7.533740724,-15.22339448,-7.686321395,2
1.61696E+18,-66.86588135,5.921424769,-13.46034903,-6.077463472,2
1.61696E+18,-66.85594824,5.069076703,-11.00781092,-3.433677395,2
1.61696E+18,-66.84601514,4.266082743,-8.602804956,-0.440340798,2
1.61696E+18,-66.83608325,3.343971405,-6.384941275,2.083368701,2
1.61696E+18,-66.82615015,3.683259182,-3.927323666,2.89503609,2
1.61696E+18,-66.81621704,5.824870521,-2.35471253,2.124210999,2
1.61696E+18,-66.80628418,7.485486688,-1.563756214,0.008927987,2
1.61696E+18,-66.79635132,5.366686023,-2.183869641,-2.369440436,2
1.61696E+18,-66.78641919,1.982599173,-4.028983129,-3.219140326,2
1.61696E+18,-66.77648608,2.113873876,-5.649103035,-4.288018096,2
1.61696E+18,-66.76655298,3.052923928,-7.686026212,-4.445780262,2
1.61696E+18,-66.75662036,3.26333661,-8.826476934,-3.948190221,2
1.61696E+18,-66.74668726,2.440327598,-9.033704557,-3.498191076,2
1.61696E+18,-66.73675513,0.456930844,-9.593698739,-3.267152077,2
1.61696E+18,-66.72682227,-1.271655428,-9.488604626,-2.779657606,2
1.61696E+18,-66.71688916,-3.664334993,-8.088878698,-1.734809531,2
1.61696E+18,-66.70695605,-12.04417641,-4.888754623,0.182474436,2
1.61696E+18,-66.69702393,-21.3940623,0.844555805,1.604292222,2
1.61696E+18,-66.68709131,-19.2523437,3.870006034,1.214404578,2
1.61696E+18,-66.6771582,-15.82738212,0.8701678,2.866912111,2
1.61696E+18,-66.6672251,-17.3576499,-1.709661061,7.206171149,2
1.61696E+18,-66.65729199,-20.07260561,-0.840703805,10.57991401,2
1.61696E+18,-66.64736011,8.847789771,1.295965109,12.05764146,2
1.61696E+18,-66.63742725,33.73552655,2.23218096,11.11042257,2
1.61696E+18,-66.62749414,17.33369503,5.718554172,6.702600281,2
1.61696E+18,-66.61756104,-9.529358661,21.37695919,-8.822865757,2
1.61696E+18,-66.60762793,-35.52320492,49.639792,-19.01891138,2
1.61696E+18,-66.59769604,19.69348237,46.40435579,-11.59262507,2
1.61696E+18,-66.58776318,-48.44005848,55.78128867,-0.77875033,2
1.61696E+18,-66.57783008,-6.951204455,29.80750672,-1.834325259,2
1.61696E+18,-66.56789697,40.33920702,9.768245158,-1.542612304,2
1.61696E+18,-66.55796411,11.08822827,9.644432316,-0.888007847,2
1.61696E+18,-66.54803198,7.160342295,9.841673383,-6.055653207,2
1.61696E+18,-66.53809888,4.820984863,10.7424976,-12.4010317,2
1.61696E+18,-66.52816626,3.88019542,11.18860003,-15.01313377,2
1.61696E+18,-66.51823315,4.930865333,9.047760554,-12.25254911,2
1.61696E+18,-66.50830127,2.428839404,7.299702835,-9.050909958,2
1.61696E+18,-66.49836816,-7.260679569,6.722516111,-5.989686989,2
1.61696E+18,-66.48843506,-10.04576621,8.954776566,-2.377472059,2
1.61696E+18,-66.4785022,-1.414665284,7.222006432,1.632212203,2
1.61696E+18,-66.46856909,1.792168664,2.762000369,4.317301181,2
1.61696E+18,-66.45863721,2.26147559,0.616145693,5.154619144,2
1.61696E+18,-66.44870435,-0.452639723,-1.546330447,5.495923229,2
1.61696E+18,-66.43877124,-2.518116794,-3.710803899,5.194221086,2
1.61696E+18,-66.42883813,-2.919095303,-5.468529026,3.980012177,2
1.61696E+18,-66.41890601,-2.015196498,-7.568811452,1.989746999,2
1.61696E+18,-66.40897339,-1.029616019,-8.633066239,1.540607832,2
1.61696E+18,-66.39904028,0.180617264,-9.830912335,2.599853704,2
1.61696E+18,-66.38910718,1.182751987,-10.50129231,3.259599177,2
1.61696E+18,-66.37917407,1.629986051,-10.28140102,3.183968475,2
1.61696E+18,-66.36924219,1.440728385,-9.681862175,2.579170105,2
1.61696E+18,-66.35930933,0.892891089,-8.915622952,1.773683305,2
1.61696E+18,-66.34937622,0.053036009,-7.929377287,1.435332955,2
1.61696E+18,-66.33944312,-0.856854145,-6.732471103,1.231525224,2
1.61696E+18,-66.32951025,-2.101692878,-5.475588297,0.775541159,2
1.61696E+18,-66.31957813,-3.926147024,-4.018398022,0.043090515,2
1.61696E+18,-66.30964478,-6.181923379,-2.207922133,-1.122106526,2
1.61696E+18,-66.29971167,-7.248127546,-0.527029486,-2.47414555,2
1.61696E+18,-66.28977881,-5.393858108,0.755750563,-3.052555971,2
1.61696E+18,-66.27984692,-3.385242158,1.900161421,-3.210859404,2
1.61696E+18,-66.26991382,-1.605436132,3.08368673,-3.318479236,2
1.61696E+18,-66.25998096,0.339651642,4.504501623,-3.829178349,2
1.61696E+18,-66.2500481,1.856960577,5.290217701,-3.941583955,2
1.61696E+18,-66.24011499,2.84891176,4.512774946,-2.351959432,2
1.61696E+18,-66.23018286,3.402618824,3.185895059,0.604396218,2
1.61696E+18,-66.22024976,2.968457007,2.988185206,2.914174213,2
1.61696E+18,-66.21031689,2.132192061,3.779855223,3.931426718,2
1.61696E+18,-66.20038403,1.812562632,4.424319248,4.126992837,2
1.61696E+18,-66.19045093,1.88753341,4.299588707,3.73710563,2
1.61696E+18,-66.1805188,2.584573425,2.837367452,3.063899203,2
1.61696E+18,-66.17058594,3.035058601,1.059361169,2.706731194,2
1.61696E+18,-66.16065283,2.939583964,-0.414243649,2.534567578,2
1.61696E+18,-66.15071997,2.242351057,-1.419881996,2.385099485,2
1.61696E+18,-66.14078809,1.230161388,-1.88766142,2.208599886,2
1.61696E+18,-66.13085498,0.312645561,-2.104420257,1.989256585,2
1.61696E+18,-66.12092188,-0.66818217,-2.05876559,1.714353603,2
1.61696E+18,-66.11098877,-3.183037331,-1.89753341,1.250504211,2
1.61696E+18,-66.10105566,-10.00158805,-0.373688936,-0.05770254,2
1.61696E+18,-66.09112378,-9.906343715,0.998945571,-2.177741514,2
1.61696E+18,-66.08119092,-8.012622557,0.928160555,-3.218544698,2
1.61696E+18,-66.07125781,-5.903883852,0.78593995,-3.345074106,2
1.61696E+18,-66.06132471,-3.824020528,0.712631552,-3.348918214,2
1.61696E+18,-66.05139185,-3.671843761,0.290675137,-3.100620329,2
1.61696E+18,-66.04145972,-2.820721438,-0.500128619,-2.769359499,2
1.61696E+18,-66.03152686,-1.698123622,-1.578077,-2.513950906,2
1.61696E+18,-66.02159375,-1.283655516,-2.652265736,-2.165957845,2
1.61696E+18,-66.01166089,-0.902072759,-3.586538637,-1.418233352,2
1.61696E+18,-66.00172876,0.15824878,-4.331327661,-0.223573485,2
1.61696E+18,-65.99179565,1.206836334,-4.83631658,1.295173082,2
1.61696E+18,-65.98186279,0.951857949,-4.846256374,2.317328556,2
1.61696E+18,-65.97192993,0.213837981,-4.424579361,2.37825035,2
1.61696E+18,-65.96199683,-0.130198452,-3.742385617,1.445481132,2
1.61696E+18,-65.9520647,-2.37350374,-2.230700366,-0.604199235,2
1.61696E+18,-65.94213159,-9.804640414,0.452532171,-3.075099227,2
1.61696E+18,-65.93219873,-14.11336987,3.184296391,-5.002061269,2
1.61696E+18,-65.92226587,4.375138746,1.847821577,-5.397279899,2
1.61696E+18,-65.91233374,23.16604509,-2.554171273,-0.816625595,2
1.61696E+18,-65.90240088,21.3027366,-3.72525971,5.727519569,2
1.61696E+18,-65.89246777,6.805111392,-6.719782886,8.645193899,2
1.61696E+18,-65.88253467,-7.509840793,-9.414681311,7.062973223,2
1.61696E+18,-65.87260181,5.741069371,-7.694130608,5.638637171,2
1.61696E+18,-65.86266992,1.873636402,-0.570976764,4.153630961,2
1.61696E+18,-65.85273682,-4.050004874,13.79962074,-3.265767637,2
1.61696E+18,-65.84280371,-11.98867489,40.44621661,-14.53709447,2
1.61696E+18,-65.83287061,-13.51505327,54.06227059,-10.35998297,2
1.61696E+18,-65.82293896,-10.42785531,49.87598093,2.723701326,2
1.61696E+18,-65.81300586,-1.521537075,35.36708613,5.361427664,2
1.61696E+18,-65.803073,2.038721166,21.15408801,2.630308172,2
1.61696E+18,-65.79313965,-0.275203427,14.41562965,-0.970161375,2
1.61696E+18,-65.78320654,-0.199660549,12.60848787,-5.518910721,2
1.61696E+18,-65.7732749,0.287114814,11.3381862,-9.008548488,2
1.61696E+18,-65.7633418,-2.097258695,9.559921557,-10.14686746,2
1.61696E+18,-65.75340894,-7.546475702,6.812760445,-8.560486741,2
1.61696E+18,-65.74347607,-16.65567769,4.364217539,-4.828812488,2
1.61696E+18,-65.73354395,-24.47682607,2.04816704,-1.329943951,2
1.61696E+18,-65.72361084,-16.25353598,4.311445149,-8.536693193,2
1.61696E+18,-65.71367773,-9.460335978,17.49398496,-16.21551985,2
1.61696E+18,-65.70374512,-20.49523364,30.06365356,-17.81048836,2
1.61696E+18,-65.69381201,-29.87550298,21.45882499,-9.1962221,2
1.61696E+18,-65.68387988,-6.336391472,7.934065153,-2.983986,2
1.61696E+18,-65.67394678,28.08705304,-4.197140724,-1.959931122,2
1.61696E+18,-65.66401392,37.64373343,-15.22864465,4.121260431,2
1.61696E+18,-65.65408081,30.06026801,-18.11326252,2.710069983,2
1.61696E+18,-65.64414795,18.34182344,-14.79119432,-4.543612567,2
1.61696E+18,-65.63421582,17.43596181,-12.10715748,-6.729491795,2
1.61696E+18,-65.62428296,26.31261761,-10.47538747,-2.917676668,2
1.61696E+18,-65.61434985,30.22512423,-8.351205108,1.508663126,2
1.61696E+18,-65.60441675,10.55122334,-3.891571385,6.514269666,2
1.61696E+18,-65.59448462,-7.39250153,2.818399717,7.722886746,2
1.61696E+18,-65.584552,-9.642343819,0.916908509,3.379350761,2
1.61696E+18,-65.5746189,0.014559856,-3.162050073,1.886852442,2
1.61696E+18,-65.56468579,8.035237709,-3.636061085,6.245201381,2
1.61696E+18,-65.55475391,23.01582296,-5.943742984,8.245383849,2
1.61696E+18,-65.5448208,25.11196522,-9.622389411,8.756701387,2
1.61696E+18,-65.5348877,11.48245555,-13.90415078,5.472858579,2
1.61696E+18,-65.52495483,14.67701381,-17.74463729,2.984945493,2
1.61696E+18,-65.51502173,24.15528526,-20.63776112,4.124116405,2
1.61696E+18,-65.50508984,22.72100181,-21.27197672,4.194542524,2
1.61696E+18,-65.49515674,18.13888094,-20.56440596,2.350082825,2
1.61696E+18,-65.48522363,15.99236693,-19.84183403,-0.208544806,2
1.61696E+18,-65.47529077,14.04606685,-19.39307319,-2.55101807,2
1.61696E+18,-65.46535791,11.65025308,-18.41626464,-4.185205956,2
1.61696E+18,-65.45542578,10.33753733,-16.03508612,-3.902582608,2
1.61696E+18,-65.44549268,10.11704048,-13.15603875,-1.964623372,2
1.61696E+18,-65.43555957,9.965285734,-11.04801083,-0.042711891,2
1.61696E+18,-65.42562695,9.1614524,-9.456057278,1.740178364,2
1.61696E+18,-65.41569482,8.225258761,-7.861002255,3.158980748,2
1.61696E+18,-65.40576172,7.447368262,-6.456724655,4.116892298,2
1.61696E+18,-65.39582886,6.598360154,-5.263393991,4.636969481,2
1.61696E+18,-65.38589575,5.330598811,-4.817535891,4.785631225,2
1.61696E+18,-65.37596265,3.434339074,-5.205838459,4.941988785,2
1.61696E+18,-65.36603076,1.577787954,-6.051148881,5.131933849,2
1.61696E+18,-65.3560979,2.530152392,-6.936622387,4.990497087,2
1.61696E+18,-65.34616479,5.890747891,-6.318473538,4.111935845,2
1.61696E+18,-65.33623169,7.39616356,-4.034824841,3.240879864,2
1.61696E+18,-65.3262998,6.463592787,-2.580694538,3.013451749,2
1.61696E+18,-65.31636694,4.761194995,-1.939791421,2.682642754,2
1.61696E+18,-65.30643408,3.616916239,-1.032031264,1.592511184,2
1.61696E+18,-65.29650122,-0.149974288,0.705500385,0.436442329,2
1.61696E+18,-65.28656812,-8.688205943,4.259482322,-0.600504179,2
1.61696E+18,-65.27663623,-19.69914522,8.837237982,-0.571058743,2
1.61696E+18,-65.26670313,-23.20818678,10.99633559,-2.802058238,2
1.61696E+18,-65.25677002,-3.888895444,7.150719896,-7.182993103,2
1.61696E+18,-65.24683716,15.65474007,1.59376323,-7.282714291,2
1.61696E+18,-65.23690527,16.24590914,1.525740664,-3.687171971,2
1.61696E+18,-65.22697217,8.41852917,9.303332229,-2.992308423,2
1.61696E+18,-65.21703906,-11.11145483,18.82040775,-9.001985476,2
1.61696E+18,-65.20710596,-6.462855121,30.28838119,-13.92126091,2
1.61696E+18,-65.19717407,-30.74560356,47.61714518,-16.08368094,2
1.61696E+18,-65.18724121,-48.55028996,65.45398964,-2.678022693,2
1.61696E+18,-65.17730811,46.19040675,26.57355285,-0.109217331,2
1.61696E+18,-65.167375,24.69879242,5.150024802,4.549753262,2
1.61696E+18,-65.15744214,-10.94917753,7.814719811,5.104418066,2
1.61696E+18,-65.14751001,-7.233030515,2.824336706,3.3413092,2
1.61696E+18,-65.1375769,3.041815089,2.438553428,0.309774097,2
1.61696E+18,-65.12764404,-0.513057074,6.842026287,-2.562460085,2
1.61696E+18,-65.11771118,-4.154034281,9.006295741,-3.536118363,2
1.61696E+18,-65.10777905,-8.636825884,9.629301382,-2.913881075,2
1.61696E+18,-65.09784595,-8.512605045,12.43628071,-1.378830585,2
1.61696E+18,-65.08791284,-2.083823459,14.10463945,-0.034488253,2
1.61696E+18,-65.07798022,2.466885204,11.21146068,0.489031763,2
1.61696E+18,-65.06804712,2.462175418,6.225176245,0.473297019,2
1.61696E+18,-65.05811499,2.03237355,2.242781849,-0.288402662,2
1.61696E+18,-65.04818213,1.627421169,-0.887283186,-0.296909647,2
1.61696E+18,-65.03824902,1.720891188,-3.259406285,0.205592423,2
1.61696E+18,-65.02831616,1.585257559,-4.927669168,0.667888447,2
1.61696E+18,-65.01838379,1.179656651,-6.078437286,0.887863031,2
1.61696E+18,-65.00845117,0.627918694,-6.945626362,1.159706481,2
1.61696E+18,-64.99851807,0.065770988,-7.528257908,1.372245508,2
1.61696E+18,-64.98858496,-0.250134891,-7.857684508,1.679682394,2
1.61696E+18,-64.97865186,0.216068517,-8.109878231,1.732225067,2
1.61696E+18,-64.96871997,0.187796946,-8.186454691,1.523906434,2
1.61696E+18,-64.95878711,0.022046412,-7.818814387,0.685729225,2
1.61696E+18,-64.948854,0.275865179,-6.633079001,-0.681415599,2
1.61696E+18,-64.9389209,-0.079244217,-5.370974076,-1.944053462,2
1.61696E+18,-64.92898926,-0.787695853,-4.105946542,-2.934726295,2
1.61696E+18,-64.91905615,-1.996031194,-2.808403224,-3.658019234,2
1.61696E+18,-64.90912305,-4.330227006,-1.536661286,-3.920940103,2
1.61696E+18,-64.89918994,-7.132087092,0.001062076,-3.65523691,2
1.61696E+18,-64.8892583,-7.661113304,1.458026725,-2.850876338,2
1.61696E+18,-64.8793252,-5.796199722,2.043721166,-1.675990262,2
1.61696E+18,-64.86939209,-3.073274642,1.893036099,-0.681156218,2
1.61696E+18,-64.85945898,-0.926317484,1.626040528,-0.420814698,2
1.61696E+18,-64.84952637,-0.304838614,1.233946167,-0.582563887,2
1.61696E+18,-64.83959424,-0.535798995,0.606221096,-0.591801379,2
1.61696E+18,-64.82966113,-0.487990365,-0.085893154,-0.064949588,2
1.61696E+18,-64.81972803,-0.027355551,-0.436791581,0.661579557,2
1.61696E+18,-64.80979517,0.375584029,-0.474468693,0.996558238,2
1.61696E+18,-64.79986304,0.058109732,-0.355208107,0.899108502,2
1.61696E+18,-64.78993018,-0.65880337,-0.420398664,0.541968404,2
1.61696E+18,-64.77999707,-1.13735451,-0.46944122,0.845644477,2
1.61696E+18,-64.77006421,-1.353162329,-0.105591541,1.739266802,2
1.61696E+18,-64.7601311,-1.246170128,0.144514854,2.274339309,2
1.61696E+18,-64.75019897,-0.970986136,0.090875034,2.196480409,2
1.61696E+18,-64.74026587,-1.209914719,-0.075936408,1.781911474,2
1.61696E+18,-64.73033325,-1.742723957,-0.29526831,1.3848912,2
1.61696E+18,-64.72040015,-2.062944922,-0.417348045,0.978146821,2
1.61696E+18,-64.71046802,-1.905183048,-0.574829932,0.478377975,2
1.61696E+18,-64.70053516,-1.561372534,-0.75451956,0.053534022,2
1.61696E+18,-64.69060205,-1.206083762,-0.923600115,-0.226437058,2
1.61696E+18,-64.68066919,-0.872232405,-0.989228479,-0.417362366,2
1.61696E+18,-64.67073706,-0.845666469,-0.825087134,-0.551389435,2
1.61696E+18,-64.6608042,-0.952247533,-0.475894342,-0.724464029,2
1.61696E+18,-64.65087109,-0.755623137,-0.10948095,-0.895412424,2
1.61696E+18,-64.64093799,-0.604226634,0.055120999,-0.926025735,2
1.61696E+18,-64.63100513,-0.57344973,0.201104756,-0.972532927,2
1.61696E+18,-64.621073,-0.439907594,0.402212435,-1.092051871,2
1.61696E+18,-64.61114014,-0.511027541,0.614417262,-1.275132895,2
1.61696E+18,-64.60120703,-0.71848605,1.070747656,-1.481795285,2
1.61696E+18,-64.59127393,-0.840870979,1.690184792,-1.391691967,2
1.61696E+18,-64.58134204,-0.755241956,2.253941541,-0.827689864,2
1.61696E+18,-64.57140894,-0.282625613,2.75626504,0.038265141,2
1.61696E+18,-64.56147607,0.614984906,2.963016862,0.87524525,2
1.61696E+18,-64.55154297,1.48323014,2.4375235,1.386544959,2
1.61696E+18,-64.54160986,2.441523383,1.180811374,1.376947694,2
1.61696E+18,-64.53167798,3.504416818,-0.556150366,1.097160446,2
1.61696E+18,-64.52174487,4.537510159,-2.428071781,0.496010663,2
1.61696E+18,-64.51181201,5.370798719,-4.064944085,-0.442267382,2
1.61696E+18,-64.50187915,5.222198057,-5.503891431,-1.135731877,2
1.61696E+18,-64.49194727,4.120364359,-6.100269763,-1.652309819,2
1.61696E+18,-64.48201416,2.027372381,-6.319895095,-2.231818849,2
1.61696E+18,-64.47208081,-2.540382401,-6.205143511,-2.240496953,2
1.61696E+18,-64.46214795,-7.452329099,-4.322710639,-0.780413587,2
1.61696E+18,-64.45221606,-8.262366548,-2.156381915,1.813740444,2
1.61696E+18,-64.4422832,-9.802824304,-0.664288085,4.620060432,2
1.61696E+18,-64.4323501,-9.231971459,-0.471781646,5.510775345,2
1.61696E+18,-64.42241724,-7.032548859,-1.779282294,5.117044908,2
1.61696E+18,-64.41248511,-8.625508956,-3.228627116,4.292216132,2
1.61696E+18,-64.402552,-10.88033955,-4.304709119,2.49875246,2
1.61696E+18,-64.39261938,-5.499836018,-4.880001408,0.242433961,2
1.61696E+18,-64.38268628,4.900769763,-4.79699813,0.156986651,2
1.61696E+18,-64.37275317,9.936267729,-4.621681895,2.806442737,2
1.61696E+18,-64.36282104,6.400881187,-3.705205348,6.421686075,2
1.61696E+18,-64.35288818,1.213573241,-0.856838948,8.32217249,2
1.61696E+18,-64.34295508,0.14063129,0.981642554,8.098873438,2
1.61696E+18,-64.33302222,-0.539334256,0.195337279,6.301310806,2
1.61696E+18,-64.32309009,2.827019661,-1.211353227,1.271956311,2
1.61696E+18,-64.31315723,5.29574494,-2.14320913,-2.520302613,2
1.61696E+18,-64.30322461,2.89700739,-2.05580791,-5.025805717,2
1.61696E+18,-64.2932915,3.25768896,1.869036799,-10.9204284,2
1.61696E+18,-64.28335938,-7.804508214,13.90011057,-18.09972382,2
1.61696E+18,-64.27342651,-13.01938104,27.31576004,-20.01772836,2
1.61696E+18,-64.26349365,-4.830914428,30.70419135,-9.293815628,2
1.61696E+18,-64.25356055,0.393718163,30.61504709,5.775679497,2
1.61696E+18,-64.24362744,-6.410998677,29.38681462,10.83067974,2
1.61696E+18,-64.2336958,-8.201227897,26.32887433,9.131187026,2
1.61696E+18,-64.2237627,-1.546973421,21.90357834,5.739615665,2
1.61696E+18,-64.21382983,-0.109682318,18.64958941,1.145983514,2
1.61696E+18,-64.20389673,-1.479057239,18.03285218,-4.19327002,2
1.61696E+18,-64.19396484,-1.210991701,18.51964318,-10.02261798,2
1.61696E+18,-64.18403174,-1.791224076,21.7193464,-13.55100136,2
1.61696E+18,-64.17409863,-3.899737156,21.16160029,-10.76452473,2
1.61696E+18,-64.16416553,-7.493293562,14.90930632,-5.735121861,2
1.61696E+18,-64.15423364,-11.61212706,7.630225998,-4.387545807,2
1.61696E+18,-64.14430078,-16.77933563,3.661193773,-9.716292268,2
1.61696E+18,-64.13436768,-19.83771666,3.77076357,-20.92720701,2
1.61696E+18,-64.12443457,-21.87279976,5.27968637,-20.7127015,2
1.61696E+18,-64.11450269,-20.72839942,6.542824729,-10.29267995,2
1.61696E+18,-64.10456958,3.879649477,2.161051076,1.079395073,2
1.61696E+18,-64.09463672,22.21178505,-5.513797324,13.11785311,2
1.61696E+18,-64.08470386,14.64074657,-9.566035656,18.09132424,2
1.61696E+18,-64.07477075,15.44341904,-7.995102682,9.823748434,2
1.61696E+18,-64.06483862,19.72411132,-6.414382474,0.592340601,2
1.61696E+18,-64.05490552,19.89282071,-5.273745874,-3.377674353,2
1.61696E+18,-64.04497266,20.12779851,-2.595140412,-2.956698181,2
1.61696E+18,-64.03503979,10.09096963,1.461849499,-1.534317061,2
1.61696E+18,-64.02510767,-3.791566704,2.288807687,-4.216387861,2
1.61696E+18,-64.01517456,1.16402449,-0.595768675,-6.007920565,2
1.61696E+18,-64.0052417,7.970392019,-1.617712261,-2.093442205,2
1.61696E+18,-63.99530859,18.93713677,-4.962206813,1.58811894,2
1.61696E+18,-63.98537646,31.96390617,-11.22257712,5.344979803,2
1.61696E+18,-63.9754436,22.8526829,-15.19359906,9.439676636,2
1.61696E+18,-63.96551074,17.92921294,-18.85719639,6.195017838,2
1.61696E+18,-63.95557764,20.50153245,-22.00470998,3.128719173,2
1.61696E+18,-63.94564453,19.99826144,-24.15670448,1.9264066,2
1.61696E+18,-63.9357124,20.96625307,-24.80656656,-0.053914692,2
1.61696E+18,-63.92577979,19.36894881,-23.82689385,-3.059152593,2
1.61696E+18,-63.91584668,15.00409589,-21.58619231,-5.054387668,2
1.61696E+18,-63.90591357,11.82885024,-17.4727107,-3.922587578,2
1.61696E+18,-63.89598169,10.14523197,-12.78158585,-0.503450165,2
1.61696E+18,-63.88604858,10.13073232,-9.637393504,2.428833121,2
1.61696E+18,-63.87611548,9.201598533,-7.476536489,4.655318207,2
1.61696E+18,-63.86618262,7.519846638,-5.328293457,6.127476919,2
1.61696E+18,-63.85625098,6.135373225,-3.686781218,6.947393957,2
1.61696E+18,-63.84631763,4.670495903,-2.58125451,7.009684701,2
1.61696E+18,-63.83638452,3.786532801,-2.367401332,6.072106914,2
1.61696E+18,-63.82645142,3.284009396,-3.250619752,4.314378572,2
1.61696E+18,-63.81651978,4.408554693,-4.663624263,1.721536792,2
1.61696E+18,-63.80658691,6.435419417,-5.874252099,-0.315375863,2
1.61696E+18,-63.79665381,7.315826871,-6.318463016,-0.596862024,2
1.61696E+18,-63.7867207,7.351780813,-7.255338208,-0.474555787,2
1.61696E+18,-63.7767876,6.129159757,-7.874807493,-1.838601621,2
1.61696E+18,-63.76685571,3.413775009,-8.9751945,-2.682592778,2
1.61696E+18,-63.75692261,0.605144991,-8.072325623,-3.177749454,2
1.61696E+18,-63.74698975,-1.795660451,-4.296512368,-2.943245409,2
1.61696E+18,-63.73705688,-3.890123524,-2.259254845,-2.124635508,2
1.61696E+18,-63.72712476,-5.622764479,-0.970194693,-1.249096244,2
1.61696E+18,-63.71719165,-6.433298187,0.120124509,-0.798170486,2
1.61696E+18,-63.70725854,-6.724068601,1.20405138,-0.503472231,2
1.61696E+18,-63.69732593,-6.446067652,3.230516291,0.862302181,2
1.61696E+18,-63.6873938,-6.503340276,4.993894913,2.582021695,2
1.61696E+18,-63.67746069,-2.063005566,5.544691643,2.785788072,2
1.61696E+18,-63.66752759,10.81625491,1.96415137,1.331196289,2
1.61696E+18,-63.65759473,14.47638018,-0.872886996,-1.593365462,2
1.61696E+18,-63.6476626,5.521240625,5.323431988,-5.113827115,2
1.61696E+18,-63.63772949,-4.94953847,15.79936832,-8.517097681,2
1.61696E+18,-63.62779663,9.155209706,21.42125192,-12.14767653,2
1.61696E+18,-63.61786377,8.599012578,22.9964823,-16.33562156,2
1.61696E+18,-63.60793164,-28.33308298,28.95990088,-13.83854288,2
1.61696E+18,-63.59799854,-26.45785025,37.34410751,-2.606215933,2
1.61696E+18,-63.58806543,7.781170009,36.49577218,2.878827882,2
1.61696E+18,-63.57813281,2.858183446,26.25626502,3.000687837,2
1.61696E+18,-63.56819971,-6.331546954,16.53718458,-1.151054241,2
1.61696E+18,-63.55826758,-6.687572223,12.63192486,-0.128761404,2
1.61696E+18,-63.54833447,-4.313245476,9.080236591,1.138563301,2
1.61696E+18,-63.53840161,-3.998478685,6.415722783,0.510489854,2
1.61696E+18,-63.52846875,-2.210507181,5.651204976,-1.712480648,2
1.61696E+18,-63.51853662,-1.001815574,5.577433053,-3.936581324,2
1.61696E+18,-63.50860376,0.012555822,6.422483363,-5.48365879,2
1.61696E+18,-63.49867065,-0.153429105,8.067069602,-6.174267311,2
1.61696E+18,-63.48873755,-0.634022564,10.15256538,-5.844100122,2
1.61696E+18,-63.47880542,-0.653082654,10.20152493,-4.453444805,2
1.61696E+18,-63.46887256,1.45651296,7.862579879,-2.194607016,2
1.61696E+18,-63.4589397,3.092580523,4.533296925,-0.183672268,2
1.61696E+18,-63.44900659,2.487011461,1.769993072,1.263801792,2
1.61696E+18,-63.43907471,1.287745124,-0.865811359,1.865603318,2
1.61696E+18,-63.42914185,-0.004199936,-3.659306351,2.050024942,2
1.61696E+18,-63.41920874,-1.092766157,-6.607153701,2.963020369,2
1.61696E+18,-63.40927563,-1.450866917,-9.162778096,4.155721503,2
1.61696E+18,-63.39934351,-1.282741032,-11.30909104,5.283987282,2
1.61696E+18,-63.38941089,-1.165402208,-12.81867259,6.185389594,2
1.61696E+18,-63.37947778,-1.127651446,-13.48109371,6.604430414,2
1.61696E+18,-63.36954468,-1.07479547,-13.02287181,6.118284143,2
1.61696E+18,-63.35961157,-0.807791058,-11.78649812,4.890871177,2
1.61696E+18,-63.34967969,-0.342413508,-10.06038861,3.329186216,2
1.61696E+18,-63.33974683,-0.084034949,-8.193262032,1.791485504,2
1.61696E+18,-63.32981372,-0.189132579,-6.480517619,0.643497226,2
1.61696E+18,-63.31988062,-0.061473016,-5.289786908,-0.183285168,2
1.61696E+18,-63.30994873,-0.148386727,-4.524074338,-0.655243778,2
1.61696E+18,-63.30001196,-0.923765535,-3.898506153,-0.928651261,2
1.61696E+18,-63.29007935,-2.446421677,-3.348074164,-1.137441019,2
1.61696E+18,-63.28014624,-4.851971245,-2.879492191,-1.247624272,2
1.61696E+18,-63.27021411,-7.718783403,-2.53331144,-1.388010063,2
1.61696E+18,-63.26028101,-8.272233278,-2.185560079,-1.470933261,2
1.61696E+18,-63.25034814,-6.071024379,-1.335130998,-1.542292424,2
1.61696E+18,-63.24041528,-2.810355527,-0.127602882,-1.54501425,2
1.61696E+18,-63.23048291,-0.085827614,1.620643053,-1.12092886,2
1.61696E+18,-63.22055005,1.136974643,4.334125183,-0.446491137,2
1.61696E+18,-63.21061719,1.219085867,7.303244453,0.459307949,2
1.61696E+18,-63.20068408,1.295689799,10.28240873,1.169972585,2
1.61696E+18,-63.19075195,1.300830085,12.52986968,1.323944418,2
1.61696E+18,-63.18081885,2.03155142,12.74613226,1.081644897,2
1.61696E+18,-63.17088623,3.276897518,10.55314641,1.044681194,2
1.61696E+18,-63.16095313,3.506225329,6.561453442,1.17337041,2
1.61696E+18,-63.151021,2.63040228,3.585778174,0.975407606,2
1.61696E+18,-63.14108789,1.772982317,2.192535178,0.457659305,2
1.61696E+18,-63.13115503,1.161206583,1.196400573,0.003166355,2
1.61696E+18,-63.12122217,0.739876118,0.361156202,-0.224449391,2
1.61696E+18,-63.11128906,0.326206323,-0.38229719,-0.152986037,2
1.61696E+18,-63.10135718,-0.080491039,-1.089509639,0.049132134,2
1.61696E+18,-63.09142407,-0.17891868,-1.827738574,0.084045334,2
1.61696E+18,-63.08149097,-0.40903797,-2.643124983,0.129194389,2
1.61696E+18,-63.07155786,-1.139583876,-3.46393517,0.326202962,2
1.61696E+18,-63.06162598,-2.407802315,-4.167587882,0.663177639,2
1.61696E+18,-63.05169312,-3.451007884,-4.490120631,1.10780722,2
1.61696E+18,-63.04176001,-2.944824787,-4.65189174,1.26671578,2
1.61696E+18,-63.0318269,-1.493004515,-4.723924711,1.133189791,2
1.61696E+18,-63.02189502,-0.339602542,-4.359727826,0.916983327,2
1.61696E+18,-63.01196191,0.120468792,-3.723991297,0.601241554,2
1.61696E+18,-63.00202905,0.300811349,-3.203061298,0.325800519,2
1.61696E+18,-62.99209595,0.386440317,-2.829736519,0.072478084,2
1.61696E+18,-62.98216406,0.127602371,-2.688774974,-0.148148242,2
1.61696E+18,-62.97223096,-0.424590709,-2.767527023,-0.224939221,2
1.61696E+18,-62.96229785,-0.913616847,-2.775296488,-0.013116379,2
1.61696E+18,-62.95236499,-1.284975367,-2.941916791,0.513132478,2
1.61696E+18,-62.94243311,-2.048428905,-3.350466028,1.114544712,2
1.61696E+18,-62.93250024,-2.516652566,-3.824440215,1.462790287,2
1.61696E+18,-62.92256714,-2.565134858,-4.318306267,1.118933595,2
1.61696E+18,-62.91263403,-3.485405244,-4.284700934,-0.155665486,2
1.61696E+18,-62.90270215,-5.235674794,-3.89566713,-1.705315433,2
1.61696E+18,-62.89276904,-7.241933952,-3.687088677,-3.14692966,2
1.61696E+18,-62.88283618,-4.674219307,-4.069748855,-4.474330064,2
1.61696E+18,-62.87290308,-0.88366178,-4.952835173,-3.51029594,2
1.61696E+18,-62.86297119,5.247066541,-5.610331698,0.73414868,2
1.61696E+18,-62.85303809,8.271887241,-4.514180721,6.666535865,2
1.61696E+18,-62.84310498,8.412173663,-1.519161285,12.01936463,2
1.61696E+18,-62.83317188,0.650067544,0.481783984,12.48905485,2
1.61696E+18,-62.82323926,-7.286213824,1.884334322,7.446546424,2
1.61696E+18,-62.81330713,-0.145166888,2.574270643,2.19201773,2
1.61696E+18,-62.80337402,1.913919897,3.632325405,0.132118898,2
1.61696E+18,-62.79344092,1.902711105,5.29045677,-1.471427474,2
1.61696E+18,-62.78350806,5.157850965,7.944566089,-3.203975198,2
1.61696E+18,-62.77357593,1.674025099,12.85930739,-6.791945621,2
1.61696E+18,-62.76364307,-2.759869202,19.9553739,-11.73077916,2
1.61696E+18,-62.75370996,-6.430289068,24.47958969,-13.12876029,2
1.61696E+18,-62.7437771,-7.476666837,22.82571306,-7.875778384,2
1.61696E+18,-62.73384497,-9.23401144,21.02763255,-2.41937921,2
1.61696E+18,-62.72391187,-10.58135193,22.79201421,-0.616347353,2
1.61696E+18,-62.71397925,-7.873902068,25.09816817,-0.279660699,2
1.61696E+18,-62.70404614,-6.142632987,24.61411858,-0.500391362,2
1.61696E+18,-62.69411401,-3.486648522,22.52636538,-1.244801616,2
1.61696E+18,-62.68418091,-3.607934476,18.99518564,-3.154665223,2
1.61696E+18,-62.67424805,-5.707366423,16.55051519,-4.573152258,2
1.61696E+18,-62.66431494,-7.724128271,15.07532105,-4.522136941,2
1.61696E+18,-62.65438281,-9.8313706,12.94257019,-3.552562425,2
1.61696E+18,-62.64444995,-10.29574518,8.399532793,-0.490069582,2
1.61696E+18,-62.63451709,-7.772731266,0.85376787,2.400143617,2
1.61696E+18,-62.62458398,-2.853270247,-4.307289198,1.331017718,2
1.61696E+18,-62.61465186,5.371563274,-5.425809243,-2.904829462,2
1.61696E+18,-62.60471875,-1.010539125,-2.114715441,-7.621055434,2
1.61696E+18,-62.59478613,-30.30408846,10.21213283,-16.44760894,2
1.61696E+18,-62.58485303,-26.08464004,12.68811145,-12.07419278,2
1.61696E+18,-62.57492114,-15.6728696,8.108556043,-6.401147145,2
1.61696E+18,-62.56498828,3.677035485,0.91359427,-4.320956489,2
1.61696E+18,-62.55505493,17.92088233,-6.643880965,-0.695949298,2
1.61696E+18,-62.54512183,19.25408324,-11.13457384,4.570025942,2
1.61696E+18,-62.53518994,15.66976111,-11.96911328,5.391980624,2
1.61696E+18,-62.52525732,10.02721817,-10.36300261,3.337232744,2
1.61696E+18,-62.51532422,10.35657053,-6.075005558,1.885539898,2
1.61696E+18,-62.50539111,17.76146451,-3.154182408,3.206440419,2
1.61696E+18,-62.49545898,21.75958488,-2.079266527,5.878772791,2
1.61696E+18,-62.48552612,15.93586938,-0.193173379,6.376265217,2
1.61696E+18,-62.47559326,6.32007279,0.79474168,3.893550576,2
1.61696E+18,-62.46566016,-4.612724097,-0.962008464,2.63739813,2
1.61696E+18,-62.45572803,0.14097382,-2.787901118,4.652118827,2
1.61696E+18,-62.44579517,10.93552544,-6.595906331,6.098387018,2
1.61696E+18,-62.43586206,16.55753647,-9.541924128,7.899860685,2
1.61696E+18,-62.42592896,20.57726311,-12.60336045,9.098518682,2
1.61696E+18,-62.41599609,16.02379199,-15.52325304,7.817310412,2
1.61696E+18,-62.40606421,15.17662221,-18.4133432,6.195996913,2
1.61696E+18,-62.3961311,20.51814924,-20.62368116,5.26618333,2
1.61696E+18,-62.386198,20.61695214,-20.63770033,3.939082785,2
1.61696E+18,-62.37626587,15.61714596,-19.62677674,2.092842048,2
1.61696E+18,-62.36633301,13.55559921,-19.27203859,0.626612142,2
1.61696E+18,-62.35640015,13.96455177,-18.03133242,-0.502025393,2
1.61696E+18,-62.34646704,12.84318043,-16.26319228,-0.63466152,2
1.61696E+18,-62.33653394,10.67548918,-14.47033739,-0.067727309,2
1.61696E+18,-62.32660205,8.236014548,-12.71055241,0.692033001,2
1.61696E+18,-62.31666895,6.14520839,-10.84165122,1.378276166,2
1.61696E+18,-62.30673608,4.642242453,-9.654215459,1.903696609,2
1.61696E+18,-62.2968064,3.815959387,-8.58642373,2.392703092,2
1.61696E+18,-62.28687427,4.053927308,-7.370445181,3.477915181,2
1.61696E+18,-62.27694141,4.312176386,-5.953292318,4.711125727,2
1.61696E+18,-62.2670083,4.282596655,-4.374744193,5.06290006,2
1.61696E+18,-62.2570752,4.221173634,-3.533613102,4.513636531,2
1.61696E+18,-62.24714331,4.198178543,-3.296500044,3.666743808,2
1.61696E+18,-62.23721069,4.033855703,-3.745656017,3.123107179,2
1.61696E+18,-62.22727734,3.361104911,-4.480071531,2.219963576,2
1.61696E+18,-62.21734424,1.595218835,-4.574698026,1.458963568,2
1.61696E+18,-62.2074126,-0.787172049,-4.25660589,0.387936511,2
1.61696E+18,-62.19747949,-2.26598503,-2.740984469,-1.058896621,2
1.61696E+18,-62.18754663,-4.080992718,0.038059389,-2.208756684,2
1.61696E+18,-62.17761353,-7.925250563,2.550159115,-2.546164492,2
1.61696E+18,-62.16768164,-10.15836851,3.546929096,-1.787403349,2
1.61696E+18,-62.15774854,-8.244947211,3.535283081,-0.080412676,2
1.61696E+18,-62.14781543,-3.135712101,2.93072495,0.434659537,2
1.61696E+18,-62.13788232,-2.115277021,3.10491715,-2.658997675,2
1.61696E+18,-62.12795044,7.372553552,1.424768599,-10.4519645,2
1.61696E+18,-62.11801758,-0.507110003,2.370511572,-14.02990599,2
1.61696E+18,-62.10808447,-5.168116923,12.83366207,-13.28721833,2
1.61696E+18,-62.09815137,-6.314713893,27.9191994,-9.786385795,2
1.61696E+18,-62.08821948,7.138637244,32.46836493,-6.940832698,2
1.61696E+18,-62.07828638,-52.86028783,56.40221926,9.050989453,2
1.61696E+18,-62.06835352,-24.96923433,53.28100798,-0.939578313,2
1.61696E+18,-62.05842041,56.68333221,12.56419047,-1.839841831,2
1.61696E+18,-62.04848853,16.88763234,8.959135346,-1.27877812,2
1.61696E+18,-62.03855542,-8.281886072,11.36319906,-6.743283589,2
1.61696E+18,-62.02862231,-4.767629705,11.89615092,-11.09857314,2
1.61696E+18,-62.01868921,7.280351069,7.181084055,-13.49931911,2
1.61696E+18,-62.00875732,7.380480838,5.782402083,-11.9492559,2
1.61696E+18,-61.99882446,1.498656257,5.228477576,-9.134671945,2
1.61696E+18,-61.98889136,-6.351582027,5.188571682,-7.381872,2
1.61696E+18,-61.97895825,-5.435771835,7.35731039,-5.158838223,2
1.61696E+18,-61.96902637,-1.00854722,10.13708841,-2.307404105,2
1.61696E+18,-61.95909326,-2.814474068,9.875693726,0.853919845,2
1.61696E+18,-61.9491604,-0.993878351,7.832413289,4.617177862,2
1.61696E+18,-61.93922729,2.665681098,5.557575675,6.512451803,2
1.61696E+18,-61.92929541,2.598702488,3.410099535,7.315881817,2
1.61696E+18,-61.9193623,0.909110548,1.821610447,7.597171286,2
1.61696E+18,-61.9094292,-0.192271315,0.076725512,7.559826182,2
1.61696E+18,-61.89949634,-0.553703558,-2.577655609,7.332338446,2
1.61696E+18,-61.88956445,-1.121739884,-4.95116344,7.469502352,2
1.61696E+18,-61.87963135,-1.529351255,-6.829750158,7.362315651,2
1.61696E+18,-61.86969824,-1.695907261,-8.369923837,6.907070129,2
1.61696E+18,-61.85976514,-0.838697726,-9.446564642,6.058055007,2
1.61696E+18,-61.8498335,0.594833879,-10.04054527,4.913959207,2
1.61696E+18,-61.83990039,1.11891226,-10.07022962,4.066925322,2
1.61696E+18,-61.82996753,1.083847376,-9.29731633,3.242310189,2
1.61696E+18,-61.82003467,1.066227548,-8.059024827,2.183396617,2
1.61696E+18,-61.81010254,0.959881973,-6.826036106,1.185820727,2
1.61696E+18,-61.80016943,0.420011674,-5.524145699,0.434074869,2
1.61696E+18,-61.79023633,0.02152089,-4.256557374,-0.252671716,2
1.61696E+18,-61.78030371,0.206937134,-2.80867035,-1.085661293,2
1.61696E+18,-61.77037134,0.282259775,-1.290644206,-1.723470391,2
1.61696E+18,-61.76043848,0.588148263,-0.233925076,-2.331139201,2
1.61696E+18,-61.75050537,0.851501094,0.667162763,-2.979960398,2
1.61696E+18,-61.74057251,0.484816484,1.711341561,-3.390753322,2
1.61696E+18,-61.73064038,-0.410644163,2.534876205,-3.42323608,2
1.61696E+18,-61.72070728,-0.862573107,2.959944031,-2.769886738,2
1.61696E+18,-61.71077441,-1.038297923,3.284166632,-1.302951607,2
1.61696E+18,-61.70084155,-1.017535706,3.472099772,0.515791322,2
1.61696E+18,-61.69090942,-0.519946286,3.42489963,1.866811671,2
1.61696E+18,-61.68097632,0.175247882,3.145039901,2.624829448,2
1.61696E+18,-61.67104321,0.610715448,2.862485527,3.007350509,2
1.61696E+18,-61.6611106,0.496269569,2.72423441,3.079590985,2
1.61696E+18,-61.65117847,0.267974024,2.327997542,2.608564542,2
1.61696E+18,-61.64124536,0.250261841,1.606241603,1.607523313,2
1.61696E+18,-61.6313125,0.061283686,0.702054629,0.652144789,2
1.61696E+18,-61.62137939,-0.052442208,-0.139155373,0.030078181,2
1.61696E+18,-61.61144727,-0.208756184,-0.972487188,-0.353292483,2
1.61696E+18,-61.60151416,-0.045609147,-1.669851613,-0.664256959,2
1.61696E+18,-61.59158154,0.416882181,-2.195782198,-0.834422825,2
1.61696E+18,-61.58164844,0.79191727,-2.524439567,-0.841199334,2
1.61696E+18,-61.57171631,1.168640532,-2.7727696,-0.851927649,2
1.61696E+18,-61.5617832,1.955011786,-2.640869898,-0.831205179,2
1.61696E+18,-61.55185034,2.947528786,-1.772763706,-0.910132585,2
1.61696E+18,-61.54191748,3.117410721,-0.009104513,-1.066900771,2
1.61696E+18,-61.53198535,2.685765855,1.99766844,-1.524906551,2
1.61696E+18,-61.52205225,2.341796935,3.512226615,-2.396803513,2
1.61696E+18,-61.51211938,1.793230155,4.128060758,-3.130806793,2
1.61696E+18,-61.50218628,1.125447799,3.581884674,-3.511179737,2
1.61696E+18,-61.49225439,0.517617478,2.103235431,-3.440734912,2
1.61696E+18,-61.48232129,-3.10888956,0.859572757,-2.725454891,2
1.61696E+18,-61.47238867,-15.21588805,3.005244477,0.116340753,2
1.61696E+18,-61.46245557,-12.10873686,3.951832085,1.799914894,2
1.61696E+18,-61.45252344,-8.002427326,1.053119645,2.648338334,2
1.61696E+18,-61.44259058,-2.88910933,-1.828101562,2.628957926,2
1.61696E+18,-61.43265747,-0.774835203,-5.376900543,2.207322413,2
1.61696E+18,-61.42272461,-4.898333475,-8.596306242,2.566915604,2
1.61696E+18,-61.41279248,-6.750818661,-10.86563532,2.903790766,2
1.61696E+18,-61.40285962,-4.059284744,-13.20557932,1.694070109,2
1.61696E+18,-61.39292651,-3.749435535,-14.72429345,-0.633502778,2
1.61696E+18,-61.38299341,-4.518112215,-13.67669812,-3.208560772,2
1.61696E+18,-61.37306128,-4.704596618,-10.19805521,-5.147063029,2
1.61696E+18,-61.36312842,-6.323973889,-6.406921637,-5.262414332,2
1.61696E+18,-61.35319556,-4.772967851,-2.025616185,-5.032975462,2
1.61696E+18,-61.34326245,2.56282775,-0.123306062,-1.380051067,2
1.61696E+18,-61.33333032,2.840981843,2.920180175,9.437312245,2
1.61696E+18,-61.32339746,3.214711403,8.990068244,17.66343318,2
1.61696E+18,-61.31346436,-1.753977757,5.425445086,15.54603887,2
1.61696E+18,-61.30353125,-2.240353745,0.106236269,8.625385037,2
1.61696E+18,-61.29359912,3.67791519,0.392342198,4.325245711,2
1.61696E+18,-61.28366626,2.459538932,4.019555375,-1.572283073,2
1.61696E+18,-61.27373315,0.071419223,13.83655434,-7.708471268,2
1.61696E+18,-61.26380005,-4.589477662,29.45776389,-11.50319907,2
1.61696E+18,-61.25386792,-4.464522079,39.49508259,-10.56213285,2
1.61696E+18,-61.2439353,1.525882703,37.13527186,-3.815306768,2
1.61696E+18,-61.2340022,-0.340776846,36.76478552,-2.159474036,2
1.61696E+18,-61.22406909,-2.514154904,33.96472927,-1.780873363,2
1.61696E+18,-61.21413721,-0.136689859,25.94220842,-1.96466575,2
1.61696E+18,-61.2042041,0.995566012,18.41283349,-2.808703376,2
1.61696E+18,-61.194271,-0.243930702,13.77381409,-4.07519163,2
1.61696E+18,-61.18433813,-3.325069721,11.551117,-5.778578725,2
1.61696E+18,-61.17440625,-11.54716446,8.803463138,-7.112476382,2
1.61696E+18,-61.16447314,-17.35593375,5.935091475,-6.192250712,2
1.61696E+18,-61.15454004,-8.622420342,4.256491323,-4.731674302,2
1.61696E+18,-61.14460693,5.149411054,1.162866552,-5.151825129,2
1.61696E+18,-61.13467505,6.123766958,-0.059269935,-6.69257573,2
1.61696E+18,-61.12474219,-14.27071498,5.659439136,-13.68217275,2
1.61696E+18,-61.11480908,-24.57750646,11.5840478,-13.36055712,2
1.61696E+18,-61.10487598,-17.05826714,10.06785763,-7.852491031,2
1.61696E+18,-61.09494409,-1.865994947,3.86190573,-3.593695523,2
1.61696E+18,-61.08501099,12.79152623,-3.566213642,0.804061005,2
1.61696E+18,-61.07507813,22.57569201,-12.23247196,4.945893391,2
1.61696E+18,-61.06514502,23.35558683,-17.27270601,7.418647194,2
1.61696E+18,-61.05521313,15.31688057,-17.18031181,5.233293452,2
1.61696E+18,-61.04528003,10.05047045,-13.15846452,1.150855066,2
1.61696E+18,-61.03534692,13.59198921,-8.565740423,-1.522083603,2
1.61696E+18,-61.02541382,18.87878629,-4.789495207,-2.986814502,2
1.61696E+18,-61.01548193,20.18403419,-2.419818332,-3.113741384,2
1.61696E+18,-61.00554907,17.5198068,-1.059106902,-2.860786322,2
1.61696E+18,-60.99561597,1.83166247,0.818414817,-0.594916369,2
1.61696E+18,-60.98568286,-3.843694366,1.339521342,0.890280322,2
1.61696E+18,-60.97575122,4.583915936,-0.090753453,2.719722485,2
1.61696E+18,-60.96581812,9.955058939,-1.47242876,6.768903183,2
1.61696E+18,-60.95588501,10.77115203,-3.914609731,12.80345749,2
1.61696E+18,-60.94595215,15.59637906,-8.569671918,15.56344944,2
1.61696E+18,-60.93602026,19.84432877,-15.01899536,13.95129014,2
1.61696E+18,-60.92608716,19.26072107,-20.23146229,10.62883966,2
1.61696E+18,-60.91615405,19.78700822,-22.98311078,5.969845978,2
1.61696E+18,-60.90622095,20.54634657,-23.62114682,-0.219503752,2
1.61696E+18,-60.89628906,16.82586241,-23.35229481,-3.664872461,2
1.61696E+18,-60.8863562,15.58275035,-24.04622516,-3.689526718,2
1.61696E+18,-60.8764231,16.59417196,-24.3130711,-3.316119521,2
1.61696E+18,-60.86648999,14.76954479,-24.13356442,-3.893242825,2
1.61696E+18,-60.85655811,11.31729422,-22.61537169,-4.254079878,2
1.61696E+18,-60.846625,9.03261793,-16.75872539,-2.424663142,2
1.61696E+18,-60.83669214,8.281068911,-11.62678336,-0.22516733,2
1.61696E+18,-60.82676025,8.009023071,-9.001572804,1.576442969,2
1.61696E+18,-60.81682715,7.464453837,-7.119168573,3.324866307,2
1.61696E+18,-60.80689404,6.602084728,-5.714446153,4.505880218,2
1.61696E+18,-60.79696094,4.952694888,-4.867459906,4.838755789,2
1.61696E+18,-60.78702905,2.439229719,-4.754462472,4.715795765,2
1.61696E+18,-60.77709595,-1.059074169,-4.930035312,4.241927376,2
1.61696E+18,-60.76716309,-2.597680452,-4.610388932,3.301452114,2
1.61696E+18,-60.75722998,1.298470662,-3.199844674,2.067507408,2
1.61696E+18,-60.7472981,6.383833022,0.312021292,1.890817838,2
1.61696E+18,-60.73736499,9.866118088,3.67984762,2.43659791,2
1.61696E+18,-60.72743188,11.09775481,4.454104146,2.239868738,2
1.61696E+18,-60.71749902,9.97840825,4.858489833,1.563913158,2
1.61696E+18,-60.70756714,6.4263377,4.991749718,0.2752309,2
1.61696E+18,-60.69763403,2.216787576,4.357108583,-0.769314832,2
1.61696E+18,-60.68770093,-9.127326259,7.214624505,-1.535369493,2
1.61696E+18,-60.67776782,-61.36986038,30.71019556,-10.34009286,2
1.61696E+18,-60.66783594,-4.356728644,27.41507031,-24.04101357,2
1.61696E+18,-60.65790283,36.45046238,6.501553392,-26.00732182,2
1.61696E+18,-60.64796997,11.83204874,10.69836035,-14.56503111,2
1.61696E+18,-60.63803711,-58.63318968,29.1330082,1.196723229,2
1.61696E+18,-60.62810522,-34.34919036,56.6769539,8.421164779,2
1.61696E+18,-60.61817212,35.14591006,45.15896877,-0.593282996,2
1.61696E+18,-60.60823901,19.33864719,22.33707614,-1.596045641,2
1.61696E+18,-60.5983064,-6.872775646,16.69054559,-2.247382475,2
1.61696E+18,-60.58837427,-1.383231012,9.181375829,1.344744484,2
1.61696E+18,-60.57844116,11.62273847,1.317820967,1.518031258,2
1.61696E+18,-60.56850806,2.389038286,1.114254789,0.812617967,2
1.61696E+18,-60.5585752,-10.15836734,9.85775358,-1.890832159,2
1.61696E+18,-60.54864307,-8.564366797,17.45192276,-7.536123819,2
1.61696E+18,-60.53870996,-8.223059789,18.98151133,-11.44942539,2
1.61696E+18,-60.5287771,-0.44753334,10.46388641,-7.445363352,2
1.61696E+18,-60.51884424,5.65890839,4.100400013,-1.341882811,2
1.61696E+18,-60.50891211,3.554517066,0.19853286,0.971720295,2
1.61696E+18,-60.498979,1.298890349,-3.489859301,1.625142118,2
1.61696E+18,-60.4890459,-0.807636233,-5.624965204,1.880792119,2
1.61696E+18,-60.47911328,-1.854665598,-7.592860437,2.042022107,2
1.61696E+18,-60.46918115,-1.369952867,-9.484229479,1.510024624,2
1.61696E+18,-60.45924805,-0.620162527,-10.4113753,1.267454762,2
1.61696E+18,-60.44931519,-0.848304928,-10.35612396,2.502670218,2
1.61696E+18,-60.43938306,-0.80907708,-9.17937501,3.906347806,2
1.61696E+18,-60.42944995,-0.198909292,-8.260241227,5.010460264,2
1.61696E+18,-60.41951685,0.459033223,-7.651854477,5.42636337,2
1.61696E+18,-60.40958423,0.603447539,-7.067777409,5.246024923,2
1.61696E+18,-60.3996521,0.256031109,-6.327799,4.205336306,2
1.61696E+18,-60.38971899,-0.109354693,-5.354263764,2.405205577,2
1.61696E+18,-60.37978589,-0.540825371,-4.151717528,0.493505986,2
1.61696E+18,-60.36985303,-1.616256801,-2.552764329,-1.255217357,2
1.61696E+18,-60.3599209,-4.336244074,0.098662034,-2.828770012,2
1.61696E+18,-60.34998804,-8.176964393,4.383891961,-4.390307673,2
1.61696E+18,-60.34005493,-8.572616739,8.383374854,-5.869533838,2
1.61696E+18,-60.33012207,-5.02386978,9.065760322,-6.353192969,2
1.61696E+18,-60.32018994,-1.770508036,6.417858041,-5.281408371,2
1.61696E+18,-60.31025684,-0.131823715,2.470433836,-3.363521616,2
1.61696E+18,-60.30032349,0.176914902,-0.563146509,-1.575164328,2
1.61696E+18,-60.29039063,0.157333419,-2.691645561,0.088446345,2
1.61696E+18,-60.2804585,0.624949762,-3.538289277,1.369235074,2
1.61696E+18,-60.27052539,1.53040924,-3.694041565,2.001515909,2
1.61696E+18,-60.26059229,2.104456498,-2.949172461,2.121162425,2
1.61696E+18,-60.25065967,1.132173819,-1.460869255,2.278775246,2
1.61696E+18,-60.24072754,-0.234618903,0.250593886,2.452218965,2
1.61696E+18,-60.23079468,-1.035766797,1.777588934,2.360664863,2
1.61696E+18,-60.22086182,-1.489153685,2.938454083,1.772487958,2
1.61696E+18,-60.21092871,-1.307228115,2.964996053,0.825005739,2
1.61696E+18,-60.20099658,-0.38301016,1.76898711,0.019790304,2
1.61696E+18,-60.19106348,0.185902511,0.072252751,-0.426032286,2
1.61696E+18,-60.18113086,-0.014840426,-1.375671098,-0.621026743,2
1.61696E+18,-60.17119873,-0.957996233,-2.155968074,-0.943323345,2
1.61696E+18,-60.16126563,-2.088269917,-2.316631514,-1.152968551,2
1.61696E+18,-60.15133252,-2.785684027,-1.952716953,-0.838069365,2
1.61696E+18,-60.14139966,-2.801418771,-1.132771858,0.116857908,2
1.61696E+18,-60.13146753,-2.196897465,-0.159763276,1.207684914,2
1.61696E+18,-60.12153467,-1.710553041,0.428555083,2.277143261,2
1.61696E+18,-60.11160156,-1.743398495,0.581954085,2.883248913,2
1.61696E+18,-60.1016687,-1.707542754,0.335529593,2.841792283,2
1.61696E+18,-60.09173657,-1.316616267,0.090059626,2.375524724,2
1.61696E+18,-60.08180347,-0.835648276,-0.051156771,1.743299419,2
1.61696E+18,-60.07187036,-0.600184227,-0.0344827,1.176200958,2
1.61696E+18,-60.06193774,-0.305427958,0.044991819,0.745585143,2
1.61696E+18,-60.05200562,-0.216437934,0.159832835,0.46929129,2
1.61696E+18,-60.04207251,-0.381237999,0.486522119,0.433894106,2
1.61696E+18,-60.0321394,0.592479607,0.770621384,0.565751577,2
1.61696E+18,-60.02220654,2.184677451,0.493753239,0.978068349,2
1.61696E+18,-60.01227441,2.582859607,0.350779769,1.529821065,2
1.61696E+18,-60.00234155,2.88297185,0.533318357,1.932063018,2
1.61696E+18,-59.99240869,3.608862697,0.855925924,2.107218948,2
1.61696E+18,-59.98247559,4.186423515,0.985721933,1.862296239,2
1.61696E+18,-59.97254346,4.293097007,0.887436915,1.460366274,2
1.61696E+18,-59.96261035,3.997196829,0.594650485,1.171518353,2
1.61696E+18,-59.95267749,3.684557697,0.261779882,0.605404957,2
1.61696E+18,-59.94274463,2.497742114,0.381470091,0.0520847,2
1.61696E+18,-59.9328125,0.249596692,0.772480749,-1.015650622,2
1.61696E+18,-59.92287939,-0.81158877,0.568043049,-1.907035691,2
1.61696E+18,-59.91294653,-0.357047013,-0.189271695,-1.930436732,2
1.61696E+18,-59.90301465,0.669614248,-0.979640567,-1.990103558,2
1.61696E+18,-59.89308154,0.948412558,-1.384070093,-2.389817308,2
1.61696E+18,-59.88314868,-0.273183246,-1.384842247,-2.739887906,2
1.61696E+18,-59.87321582,-1.920475895,-1.133619415,-2.823197473,2
1.61696E+18,-59.86328369,-3.57088631,-1.103839778,-2.658294495,2
1.61696E+18,-59.85335059,-4.40344188,-1.229538872,-2.317908256,2
1.61696E+18,-59.84341748,-4.78774398,-1.478675546,-1.835652124,2
1.61696E+18,-59.83348462,-5.372115647,-1.876344492,-0.700730102,2
1.61696E+18,-59.82355249,-6.437741138,-1.938544051,0.967778572,2
1.61696E+18,-59.81361963,-6.938992623,-1.693389725,2.77322465,2
1.61696E+18,-59.80368677,-6.555711099,-1.253447571,4.607976026,2
1.61696E+18,-59.79375366,-5.763078374,-1.063552191,6.154357327,2
1.61696E+18,-59.78382153,-5.241904628,-1.562797598,6.836900615,2
1.61696E+18,-59.77388843,-4.62268435,-2.39381003,6.64723086,2
1.61696E+18,-59.76395581,-3.923827641,-3.341891676,6.044772332,2
1.61696E+18,-59.75402271,-3.668185823,-4.280513419,5.459148034,2
1.61696E+18,-59.74409058,-3.543194001,-5.139915496,5.181081619,2
1.61696E+18,-59.73415747,-3.157764358,-5.807113915,4.88473282,2
1.61696E+18,-59.72422461,-2.79573605,-6.129464878,4.16914008,2
1.61696E+18,-59.71429175,-3.185208245,-5.877399165,3.211916512,2
1.61696E+18,-59.70435938,-4.389435566,-4.950288996,1.751849513,2
1.61696E+18,-59.69442651,-5.254101262,-3.707085755,-0.576615062,2
1.61696E+18,-59.68449365,-4.229038376,-3.272089826,-3.49067354,2
1.61696E+18,-59.67456152,-0.491268436,-3.600477146,-6.945100293,2
1.61696E+18,-59.66462842,2.850554851,-2.598123227,-10.38563764,2
1.61696E+18,-59.65469531,4.313548259,0.022315877,-10.78133908,2
1.61696E+18,-59.6447627,6.338830682,2.257582528,-4.949321027,2
1.61696E+18,-59.63483057,2.089311535,1.9630022,-0.231668237,2
1.61696E+18,-59.62489746,9.508313535,1.824953912,1.751833731,2
1.61696E+18,-59.6149646,13.46877316,5.846894137,1.699968227,2
1.61696E+18,-59.60503149,1.695552456,15.53857453,-4.940861827,2
1.61696E+18,-59.59509937,-4.805559038,27.7917783,-10.24243445,2
1.61696E+18,-59.5851665,-3.938063087,36.68902213,-10.37166289,2
1.61696E+18,-59.57523364,-1.551207113,36.03679858,-4.174070522,2
1.61696E+18,-59.56530054,-0.280896378,33.00206848,-2.501647597,2
1.61696E+18,-59.55536865,-0.159992994,26.32257552,-3.839940859,2
1.61696E+18,-59.54543555,-1.810674334,19.62081695,-4.24929995,2
1.61696E+18,-59.53550269,-2.291027117,15.60373469,-4.892619774,2
1.61696E+18,-59.52556982,-2.671761879,13.04958212,-5.213761068,2
1.61696E+18,-59.5156377,-5.678512085,11.12059442,-3.873679754,2
1.61696E+18,-59.50570459,-9.955561628,10.04490814,-2.286900392,2
1.61696E+18,-59.49577173,-11.74847965,10.38893551,0.037890755,2
1.61696E+18,-59.4858396,-10.04471758,9.445743389,2.493038759,2
1.61696E+18,-59.47590649,-8.072555924,5.20006689,2.337577856,2
1.61696E+18,-59.46597339,-7.064136422,4.406560889,-1.707119267,2
1.61696E+18,-59.45604077,-11.69599893,7.464557882,-7.244874097,2
1.61696E+18,-59.44610864,-26.79207753,12.33029286,-9.572043956,2
1.61696E+18,-59.43617554,-26.81403217,13.34374744,-3.555152149,2
1.61696E+18,-59.42624268,-2.360494621,7.607939932,1.279250121,2
1.61696E+18,-59.41630957,16.88894635,0.04744798,4.908825936,2
1.61696E+18,-59.40637744,21.44497182,-7.31467361,6.317967342,2
1.61696E+18,-59.39644458,21.26128699,-9.039794106,-1.729408548,2
1.61696E+18,-59.38651172,12.62428867,-8.478789285,-8.89970116,2
1.61696E+18,-59.37657861,12.91530575,-8.536123868,-10.49424063,2
1.61696E+18,-59.36664648,20.62019741,-7.515166372,-6.119872289,2
1.61696E+18,-59.35671338,18.85999741,-4.895960024,-2.310863159,2
1.61696E+18,-59.34678076,9.422578202,-3.162302586,-0.870960631,2
1.61696E+18,-59.33684839,0.978265771,-2.458078212,-0.739247172,2
1.61696E+18,-59.32691553,1.445645967,-3.069325612,-0.91204441,2
1.61696E+18,-59.31698242,17.43464196,-5.337758035,-0.455543043,2
1.61696E+18,-59.30704956,18.92129389,-8.255873095,5.519608056,2
1.61696E+18,-59.29711426,13.27293027,-11.50855329,12.79819328,2
1.61696E+18,-59.2871814,16.7649903,-15.30421164,13.69848793,2
1.61696E+18,-59.27724854,20.73417918,-20.11398742,10.48741926,2
1.61696E+18,-59.26731543,20.22546276,-23.82579261,6.962113971,2
1.61696E+18,-59.25738354,20.91867766,-24.51899582,2.159807213,2
1.61696E+18,-59.24745044,20.67449715,-22.11542311,-1.959597068,2
1.61696E+18,-59.23751733,18.03184329,-20.02999396,-4.1724286,2
1.61696E+18,-59.22758423,14.94850903,-18.85073508,-5.34073559,2
1.61696E+18,-59.21765234,11.41673425,-17.9595052,-5.685359759,2
1.61696E+18,-59.20771948,8.605226046,-16.27092551,-5.29891714,2
1.61696E+18,-59.19778638,6.004689328,-13.529104,-3.406859238,2
1.61696E+18,-59.18785425,4.793589199,-10.93777701,-0.815626355,2
1.61696E+18,-59.17792139,3.915732013,-8.774602954,1.231897418,2
1.61696E+18,-59.16798828,3.617497839,-7.501124987,3.097904056,2
1.61696E+18,-59.15805542,5.064394683,-6.537243714,4.714282438,2
1.61696E+18,-59.14812329,7.397710205,-4.387722333,4.789577625,2
1.61696E+18,-59.13819043,7.798720278,-2.24679693,3.989350207,2
1.61696E+18,-59.12825732,6.481448762,-1.415822491,3.728683547,2
1.61696E+18,-59.11832422,4.722335396,-1.9033231,3.61227572,2
1.61696E+18,-59.10839209,2.335492282,-3.323252442,3.390982455,2
1.61696E+18,-59.09845923,0.888756765,-4.164586362,1.816237229,2
1.61696E+18,-59.08852637,1.258507193,-4.194157909,-1.249437459,2
1.61696E+18,-59.07859326,2.195570601,-3.347766121,-3.82468133,2
1.61696E+18,-59.06866113,1.670842378,-1.666987456,-6.311601314,2
1.61696E+18,-59.05872827,0.436453764,0.316212314,-8.834763116,2
1.61696E+18,-59.04879517,-2.134869171,2.407178046,-9.655520696,2
1.61696E+18,-59.03886328,-7.0610519,3.486282611,-8.09873666,2
1.61696E+18,-59.02893066,-10.79712936,3.514844689,-5.480029494,2
1.61696E+18,-59.01899756,-12.54001581,4.528991337,-4.950914434,2
1.61696E+18,-59.00906421,-4.287843324,3.315134602,-6.839179081,2
1.61696E+18,-58.99913232,-3.950595236,8.350937397,-6.757047326,2
1.61696E+18,-58.98919946,6.897217429,17.78191576,-4.771411269,2
1.61696E+18,-58.97926636,13.69298407,26.0796529,-2.179502971,2
1.61696E+18,-58.9693335,-11.13367602,34.43485321,2.327652089,2
1.61696E+18,-58.95940137,-6.690976479,29.34283987,3.770772045,2
1.61696E+18,-58.94946851,-5.223067241,22.51005955,1.870739219,2
1.61696E+18,-58.9395354,-4.031065196,19.34134535,0.364819108,2
1.61696E+18,-58.92960327,-1.792217179,15.65419062,2.012520557,2
1.61696E+18,-58.91967017,-5.543886172,13.10737964,1.333170366,2
1.61696E+18,-58.90973755,-10.30298273,16.76942682,0.778141551,2
1.61696E+18,-58.89980444,-7.461525967,21.21961759,-0.314242767,2
1.61696E+18,-58.88987231,0.283605345,14.49805308,-4.471039791,2
1.61696E+18,-58.87993921,-0.7876941,7.842350161,-5.126585474,2
1.61696E+18,-58.87000635,-2.669512932,6.237673323,-4.682212644,2
1.61696E+18,-58.86007324,-1.831374593,5.173039767,-4.897496732,2
1.61696E+18,-58.85014111,-0.553115529,3.597704174,-5.521437025,2
1.61696E+18,-58.8402085,0.641251493,2.217375021,-5.677842223,2
1.61696E+18,-58.83027539,1.241224342,1.151250349,-5.146885335,2
1.61696E+18,-58.82034229,1.377464704,0.440854008,-4.197892419,2
1.61696E+18,-58.81041016,1.079578028,-0.156004801,-2.964895223,2
1.61696E+18,-58.80047729,0.662308601,-0.806632024,-1.448530291,2
1.61696E+18,-58.79054443,0.31976986,-1.595461266,0.212103266,2
1.61696E+18,-58.7806123,-0.027114655,-2.542003281,1.656538981,2
1.61696E+18,-58.7706792,-0.598099603,-3.675144557,2.959095889,2
1.61696E+18,-58.76074634,-1.167611701,-5.195770069,4.212456367,2
1.61696E+18,-58.75081323,-1.565156728,-6.653560063,5.015832604,2
1.61696E+18,-58.7408811,-1.328064129,-7.863748923,5.230692914,2
1.61696E+18,-58.730948,-0.976402973,-8.733035264,5.25531473,2
1.61696E+18,-58.72101538,-0.324396716,-8.943720334,4.94288778,2
1.61696E+18,-58.71108228,0.191262504,-8.57768922,4.428484259,2
1.61696E+18,-58.70115039,0.744276398,-7.883181353,3.889902867,2
1.61696E+18,-58.69121753,1.378710612,-6.938851169,3.318463454,2
1.61696E+18,-58.68128442,1.809939298,-6.047350658,2.770615637,2
1.61696E+18,-58.67135229,1.964009916,-5.143212784,2.12669814,2
1.61696E+18,-58.66141943,1.689593255,-4.152139553,1.425891173,2
1.61696E+18,-58.65148657,1.139549974,-3.24381241,0.754101188,2
1.61696E+18,-58.64155347,0.648357525,-2.093785466,0.1338843,2
1.61696E+18,-58.63162134,0.472970563,-0.152991006,-0.574853313,2
1.61696E+18,-58.62168823,0.548854437,3.440090769,-1.912271984,2
1.61696E+18,-58.61175537,-0.506801448,8.98218772,-3.915820276,2
1.61696E+18,-58.60182251,-4.658063122,14.44446645,-6.144352066,2
1.61696E+18,-58.59189038,-12.41905017,17.02612195,-7.713160302,2
1.61696E+18,-58.58195728,-12.20877778,11.09875317,-5.548482268,2
1.61696E+18,-58.57202441,-8.083399974,3.745112996,-2.562222477,2
1.61696E+18,-58.56209131,-4.086878853,-0.463777203,-1.452577812,2
1.61696E+18,-58.55215918,0.137886303,-3.452038396,-1.138398466,2
1.61696E+18,-58.54222632,2.398130816,-5.880215391,-0.466222696,2
1.61696E+18,-58.53229346,3.658390406,-7.582033922,0.264534441,2
1.61696E+18,-58.52236133,4.439164351,-7.746537671,1.509089389,2
1.61696E+18,-58.51242822,4.716373857,-5.985442191,2.778593484,2
1.61696E+18,-58.50249512,3.750349727,-3.072143592,2.900414568,2
1.61696E+18,-58.4925625,2.212134782,-0.539603721,2.287549504,2
1.61696E+18,-58.48263013,0.857875889,1.097145833,1.584149744,2
1.61696E+18,-58.47269727,-0.092621001,1.783379208,0.826537625,2
1.61696E+18,-58.4627644,-0.544871395,1.97087571,0.204997672,2
1.61696E+18,-58.4528313,-0.734168846,2.126503494,-0.070380527,2
1.61696E+18,-58.44289917,-1.087964748,2.022991097,-0.024978666,2
1.61696E+18,-58.43296606,-1.631020655,1.718480912,0.194274033,2
1.61696E+18,-58.42303345,-1.952472623,1.423419522,0.393908717,2
1.61696E+18,-58.41310132,-1.698348224,1.152548572,0.498130723,2
1.61696E+18,-58.40316821,-1.003770215,0.802476658,0.50817354,2
1.61696E+18,-58.39323511,-0.268863703,0.346348509,0.313536957,2
1.61696E+18,-58.38330225,0.237086755,-0.097637952,-0.152869571,2
1.61696E+18,-58.37337036,0.472157493,-0.558210221,-0.816848883,2
1.61696E+18,-58.36343726,0.569935767,-0.927388402,-1.552842752,2
1.61696E+18,-58.35350439,0.553359859,-1.202542729,-2.070923061,2
1.61696E+18,-58.34357153,0.16326975,-1.449138486,-2.016282247,2
1.61696E+18,-58.3336394,-0.85731716,-1.746189003,-1.477554725,2
1.61696E+18,-58.3237063,-2.412774259,-1.931604607,-0.724627403,2
1.61696E+18,-58.31377319,-3.707097446,-1.699403871,-0.325309812,2
1.61696E+18,-58.30384131,-4.113067772,-1.250431438,-0.379708927,2
1.61696E+18,-58.29391211,-4.239064388,-0.95453126,-0.439619498,2
1.61696E+18,-58.28397925,-4.118426668,-0.973346435,-0.102907271,2
1.61696E+18,-58.27404614,-3.176898098,-1.553867857,0.663092299,2
1.61696E+18,-58.26411426,-1.865566931,-3.08020824,1.074950807,2
1.61696E+18,-58.25418115,-1.920662796,-5.139762351,0.456485146,2
1.61696E+18,-58.24424805,-2.862382359,-6.056565646,-0.74544705,2
1.61696E+18,-58.23431519,-1.681385691,-6.112057231,-2.186502182,2
1.61696E+18,-58.2243833,-4.895457335,-5.920834987,-1.887275344,2
1.61696E+18,-58.2144502,-6.521921058,-4.870736151,0.459908106,2
1.61696E+18,-58.20451709,-3.954919822,-3.222258165,4.161792932,2
1.61696E+18,-58.19458521,-3.582013853,-1.805271891,6.077191085,2
1.61696E+18,-58.1846521,-2.147159913,-1.365599786,6.462676257,2
1.61696E+18,-58.17471924,0.037902737,-1.077023667,7.931812405,2
1.61696E+18,-58.16478613,3.078597298,-0.54499652,9.855057765,2
1.61696E+18,-58.15485425,5.539827252,-0.201450209,10.12391562,2
1.61696E+18,-58.14492114,4.905667764,-0.21144261,7.851444153,2
1.61696E+18,-58.13498804,2.286458786,0.527131777,4.415426332,2
1.61696E+18,-58.12505591,2.273024719,2.422256373,1.841029871,2
1.61696E+18,-58.11512305,6.385415323,3.210444978,0.192282275,2
1.61696E+18,-58.10519019,6.449470738,2.80561973,-1.420558872,2
1.61696E+18,-58.09525708,8.125028454,3.747840959,-4.122473898,2
1.61696E+18,-58.0853252,9.026841101,7.212592122,-8.100148864,2
1.61696E+18,-58.07539233,-10.07466264,14.94027662,-13.43856975,2
1.61696E+18,-58.06545923,-35.65461947,34.05906175,-19.56874073,2
1.61696E+18,-58.05552612,16.42080978,32.54406519,-12.48129357,2
1.61696E+18,-58.04559399,0.811130505,18.28006168,-0.821896521,2
1.61696E+18,-58.03566138,-11.17739592,18.29155338,4.306934393,2
1.61696E+18,-58.02572827,-3.925229617,17.74383065,6.529445608,2
1.61696E+18,-58.01579614,0.600261895,16.15429001,4.45322181,2
1.61696E+18,-58.00586328,1.525852307,14.85544847,1.831449411,2
1.61696E+18,-57.99593018,0.359872592,14.75480081,-0.929241921,2
1.61696E+18,-57.98599731,-3.14595877,16.1033536,-5.876220184,2
1.61696E+18,-57.97606519,-6.191234813,20.01526401,-7.969031837,2
1.61696E+18,-57.96613232,-7.006654539,23.35302429,-4.823642976,2
1.61696E+18,-57.95619922,-5.696248817,17.96295154,0.731918875,2
1.61696E+18,-57.94626611,-5.337379265,8.307780392,3.513388645,2
1.61696E+18,-57.93633398,-6.38571226,2.734533685,1.110206975,2
1.61696E+18,-57.92640112,-9.667339729,0.451451974,-5.387234306,2
1.61696E+18,-57.91646826,-16.56144107,1.803857348,-15.72681629,2
1.61696E+18,-57.90653613,-21.07041955,3.418333111,-22.39753909,2
1.61696E+18,-57.89660303,-17.38976237,2.473232527,-17.50377102,2
1.61696E+18,-57.88667017,1.605000078,-0.997964159,-9.835431858,2
1.61696E+18,-57.87673706,19.10320996,-3.562828675,-1.501663038,2
1.61696E+18,-57.86680493,21.10957316,-6.745353965,6.503164335,2
1.61696E+18,-57.85687207,17.42593258,-6.760919199,9.013380146,2
1.61696E+18,-57.84693921,18.27654754,-3.15910642,6.937875018,2
1.61696E+18,-57.83700708,21.844392,-2.372438741,5.960027179,2
1.61696E+18,-57.82707397,19.63511436,-1.398456931,4.220708062,2
1.61696E+18,-57.81714111,13.75501821,0.908975962,0.666542586,2
1.61696E+18,-57.80720825,4.479493438,0.798773712,-0.607784107,2
1.61696E+18,-57.79727612,1.807837942,-0.54317398,0.562699788,2
1.61696E+18,-57.78734326,8.398771161,-3.419520275,3.30745983,2
1.61696E+18,-57.77741016,23.71866845,-9.037430299,7.633306429,2
1.61696E+18,-57.76747705,34.00084571,-15.93003351,13.41880472,2
1.61696E+18,-57.75754517,28.38671637,-20.58320886,15.10152283,2
1.61696E+18,-57.74761206,22.0560123,-23.48785946,11.62809035,2
1.61696E+18,-57.73767944,9.993888728,-26.16629073,3.710632926,2
1.61696E+18,-57.72774731,6.572204553,-26.02344995,-3.824833598,2
1.61696E+18,-57.71781421,14.5126673,-24.13203298,-9.329296692,2
1.61696E+18,-57.7078811,14.40448048,-25.39027714,-12.39264264,2
1.61696E+18,-57.69794824,8.964149374,-26.51042449,-11.0055874,2
1.61696E+18,-57.68801611,4.235957654,-25.39819156,-6.73777447,2
1.61696E+18,-57.67808301,2.559215697,-21.1148058,-2.627530816,2
1.61696E+18,-57.66815039,1.850398734,-16.18652639,0.294025909,2
1.61696E+18,-57.65821826,0.157267953,-12.15764029,2.980472732,2
1.61696E+18,-57.64828516,-1.174043195,-8.576010473,5.291836826,2
1.61696E+18,-57.63835205,0.537423454,-4.899552496,6.232489199,2
1.61696E+18,-57.62841919,8.072496303,-2.699385799,4.9398243,2
1.61696E+18,-57.61848706,13.0441449,-1.606948874,4.047670586,2
1.61696E+18,-57.6085542,12.79147596,-1.086063883,3.231594734,2
1.61696E+18,-57.59862109,7.38664579,0.079990067,1.484875716,2
1.61696E+18,-57.58868823,4.198492139,1.927760206,-2.337734215,2
1.61696E+18,-57.5787561,3.843697873,6.083879184,-5.763433179,2
1.61696E+18,-57.568823,3.501405362,10.56978307,-6.639857117,2
1.61696E+18,-57.55889014,2.323444409,7.881577425,-4.197933336,2
1.61696E+18,-57.54895801,0.319808366,-0.080565821,-1.862386986,2
1.61696E+18,-57.53902515,-1.187308919,-6.055605861,-0.608879501,2
1.61696E+18,-57.52909204,1.454207459,-9.597087212,-0.026309623,2
1.61696E+18,-57.51915894,4.338441292,-11.58713875,0.355625164,2
1.61696E+18,-57.50922705,0.859429695,-11.19218198,0.255830691,2
1.61696E+18,-57.49929395,-15.48467459,-5.209523869,-3.376970881,2
1.61696E+18,-57.48936108,-12.70162793,7.248368954,-6.224600491,2
1.61696E+18,-57.47942944,21.35309901,17.1394245,-6.120778298,2
1.61696E+18,-57.46949634,-1.055396942,29.07864767,-9.103320529,2
1.61696E+18,-57.45956323,-23.73773555,46.54328495,-8.55741917,2
1.61696E+18,-57.44963013,-14.92655673,43.88747467,3.234855197,2
1.61696E+18,-57.43969824,-7.3229557,35.12991053,9.824643922,2
1.61696E+18,-57.42976514,-6.210301917,32.77409325,7.30585259,2
1.61696E+18,-57.41983228,-9.306542424,26.76854,2.766097867,2
1.61696E+18,-57.40990039,6.815012024,13.13861416,-2.105267668,2
1.61696E+18,-57.39996729,4.043122421,5.207895391,-5.34061927,2
1.61696E+18,-57.39003418,-3.383313528,4.012058298,-4.990271462,2
1.61696E+18,-57.38010107,-1.955278036,4.80241431,-3.406604387,2
1.61696E+18,-57.37016919,-0.869602568,6.447903051,-2.473504914,2
1.61696E+18,-57.36023633,0.2880689,7.127799624,-2.871608452,2
1.61696E+18,-57.35030322,1.044709105,8.041320828,-2.174936978,2
1.61696E+18,-57.34037012,1.714544741,7.283037532,-1.609384285,2
1.61696E+18,-57.33043823,1.94348516,5.564441469,-1.022601026,2
1.61696E+18,-57.32050513,1.744348051,2.462709379,-0.684121497,2
1.61696E+18,-57.31057202,3.015122312,-1.132079784,-1.743686226,2
1.61696E+18,-57.30064014,3.896145853,-4.428678028,-2.608127904,2
1.61696E+18,-57.29070752,3.557311373,-7.57522132,-3.255348534,2
1.61696E+18,-57.28077441,1.966361448,-9.762758836,-4.101093549,2
1.61696E+18,-57.27084131,-0.336677594,-11.03976439,-3.617152094,2
1.61696E+18,-57.26090942,-1.613503118,-11.86623275,-1.431335556,2
1.61696E+18,-57.25097632,-1.660406908,-12.83669223,0.99319826,2
1.61696E+18,-57.24104346,-1.108482635,-12.62308806,3.226477244,2
1.61696E+18,-57.23111133,-0.654290422,-11.29899751,4.5801522,2
1.61696E+18,-57.22117871,-0.527561364,-9.839369197,5.227395042,2
1.61696E+18,-57.21124561,-0.406018184,-7.968307614,5.524163235,2
1.61696E+18,-57.2013125,-0.310701514,-5.93957242,5.33953732,2
1.61696E+18,-57.19138037,-0.548471064,-3.529456567,4.456788855,2
1.61696E+18,-57.18144751,-0.998151937,0.117190794,3.037597764,2
1.61696E+18,-57.17151465,-1.44105937,5.367943914,0.984403397,2
1.61696E+18,-57.16158252,-2.641379601,12.60032795,-1.622716206,2
1.61696E+18,-57.15164941,-7.332207513,20.41182003,-3.177740978,2
1.61696E+18,-57.14171655,-11.80968727,20.08521024,-1.914608464,2
1.61696E+18,-57.13178345,-10.29034771,11.5973106,-0.330124665,2
1.61696E+18,-57.12185132,-7.404397135,4.333213328,-0.317156463,2
1.61696E+18,-57.11191846,-4.5510547,-0.897030673,-1.39199168,2
1.61696E+18,-57.1019856,-0.424414476,-4.460016585,-2.34458715,2
1.61696E+18,-57.09205347,2.777257559,-6.442217991,-2.210000254,2
1.61696E+18,-57.08212036,3.792593124,-7.233707391,-1.738964897,2
1.61696E+18,-57.0721875,3.693808925,-7.276773795,-1.346287475,2
1.61696E+18,-57.06225439,3.399620227,-6.303574659,-1.250844549,2
1.61696E+18,-57.05232227,2.193987715,-4.316650901,-1.187830459,2
1.61696E+18,-57.0423894,0.584908843,-1.866203037,-0.563750612,2
1.61696E+18,-57.03245654,-0.786902073,0.123047118,0.206931416,2
1.61696E+18,-57.02252441,-1.748254703,1.518179873,0.747407098,2
1.61696E+18,-57.01259131,-1.620899074,2.334581012,0.94964831,2
1.61696E+18,-57.0026582,-0.848417156,2.787275095,0.765338476,2
1.61696E+18,-56.99272559,0.01404723,2.765574136,0.532350388,2
1.61696E+18,-56.98279321,0.580039776,2.245481756,0.517049943,2
1.61696E+18,-56.97286035,0.528945475,1.648373356,0.287443754,2
1.61696E+18,-56.96292725,0.287293605,1.374514914,-0.316563611,2
1.61696E+18,-56.95299561,0.216022924,1.230254327,-1.153624969,2
1.61696E+18,-56.9430625,-0.530674637,0.573090395,-1.723810875,2
1.61696E+18,-56.93312939,-2.335623214,-0.18578093,-2.032897282,2
1.61696E+18,-56.92319678,-4.678021038,-0.670571111,-2.020489636,2
1.61696E+18,-56.91326465,-5.836458083,-0.811812057,-1.257738546,2
1.61696E+18,-56.90333154,-4.823330841,-0.732820938,0.040067514,2
1.61696E+18,-56.89339844,-3.025982145,-0.605948709,1.260998717,2
1.61696E+18,-56.88346655,-1.825828941,-0.528975944,2.311495904,2
1.61696E+18,-56.87353345,-1.647326478,-0.180191732,2.892315432,2
1.61696E+18,-56.86360034,-1.96015441,0.356118792,2.745043097,2
1.61696E+18,-56.85366748,-2.561246326,0.665972677,2.299432834,2
1.61696E+18,-56.8437356,-3.816483703,0.562567248,2.022047825,2
1.61696E+18,-56.83380249,-4.597068263,0.17895956,1.734464078,2
1.61696E+18,-56.82386938,-4.679783371,-0.518689527,1.503764833,2
1.61696E+18,-56.8139375,-4.418821235,-1.423475637,1.678562743,2
1.61696E+18,-56.80400439,-3.639681321,-2.388649287,2.258960392,2
1.61696E+18,-56.79407153,-2.594750536,-2.995290069,2.826260952,2
1.61696E+18,-56.78413843,-1.831271863,-3.267184518,3.051024816,2
1.61696E+18,-56.77420654,-1.734552195,-3.254385242,2.875560112,2
1.61696E+18,-56.76427344,-3.583087327,-3.79960388,2.837968925,2
1.61696E+18,-56.75434033,-1.875178663,-3.319686859,1.028120959,2
1.61696E+18,-56.7444082,2.414997488,-1.49287709,-0.292304784,2
1.61696E+18,-56.73447534,0.351433557,-2.30367734,0.163030608,2
1.61696E+18,-56.72454248,-6.411315488,-2.114787337,-1.145115499,2
1.61696E+18,-56.71460938,-10.09897641,-0.250440742,-2.975846825,2
1.61696E+18,-56.70467749,-4.081263936,-1.674608452,-3.787687232,2
1.61696E+18,-56.69474438,6.841788387,-4.363998343,-2.272638935,2
1.61696E+18,-56.68481128,10.64965215,-4.065682336,1.450365835,2
1.61696E+18,-56.67487842,6.890195567,-1.712557367,5.186216643,2
1.61696E+18,-56.66494678,7.985351103,-3.083903588,7.473757672,2
1.61696E+18,-56.65501343,6.921067675,-5.278089456,7.594825599,2
1.61696E+18,-56.64508032,1.856073857,-5.339032293,3.109474375,2
1.61696E+18,-56.63514844,4.782872282,-4.602507239,-2.466584175,2
1.61696E+18,-56.62521558,2.537932378,-0.622028906,-7.359573659,2
1.61696E+18,-56.61528247,-4.646266886,11.97116495,-15.89999844,2
1.61696E+18,-56.60535034,-6.652376991,29.6625032,-21.21008521,2
1.61696E+18,-56.59541748,-5.652121506,35.3018909,-12.72742522,2
1.61696E+18,-56.58548462,-6.156579679,34.1473947,1.311318745,2
1.61696E+18,-56.57555151,-5.655862446,32.62638925,7.292897247,2
1.61696E+18,-56.56561938,-7.414408242,29.37248215,6.142137312,2
1.61696E+18,-56.55568628,-6.711209704,24.9545979,4.734209081,2
1.61696E+18,-56.54575366,-4.646708785,19.86081696,3.417798273,2
1.61696E+18,-56.53582153,-3.744619659,16.18493182,1.665473544,2
1.61696E+18,-56.52588843,-3.180924869,14.34437059,-0.826919318,2
1.61696E+18,-56.51595557,-3.456812187,13.89672853,-3.550077915,2
1.61696E+18,-56.50602246,-5.323136804,13.60303083,-4.77240934,2
1.61696E+18,-56.49609033,-7.96627114,10.21172133,-4.24222139,2
1.61696E+18,-56.48615723,-7.535442267,6.132905373,-4.764548105,2
1.61696E+18,-56.47622461,-6.039194824,2.906594718,-7.391060684,2
1.61696E+18,-56.46629248,-16.61722901,4.534997299,-14.71129719,2
1.61696E+18,-56.45635938,-30.55528557,8.973319938,-15.11415552,2
1.61696E+18,-56.44642627,-17.55229569,8.743342139,-3.789258719,2
1.61696E+18,-56.43649341,10.31310899,3.592471534,1.301104225,2
1.61696E+18,-56.42656128,21.914392,-3.677266956,9.703979899,2
1.61696E+18,-56.41662842,19.94046859,-7.467835296,13.81284028,2
1.61696E+18,-56.40669531,17.6051657,-6.132153678,6.604560762,2
1.61696E+18,-56.39676343,17.39999617,-3.586093816,-0.313072116,2
1.61696E+18,-56.38683032,19.3626196,1.281668288,-2.862007972,2
1.61696E+18,-56.37689722,20.62009453,6.001784254,-3.310999694,2
1.61696E+18,-56.36696411,14.70406315,6.925912193,-7.01512017,2
1.61696E+18,-56.35703247,0.36507133,6.90267394,-11.49967206,2
1.61696E+18,-56.34709961,1.645854651,7.666144868,-11.32505784,2
1.61696E+18,-56.3371665,26.69069338,1.483838628,-8.060129573,2
1.61696E+18,-56.32723462,31.75057438,-7.986617762,3.233496476,2
1.61696E+18,-56.31730151,36.23296413,-16.94142239,14.71616859,2
1.61696E+18,-56.30736841,35.7977151,-25.78541393,16.58849976,2
1.61696E+18,-56.29743506,29.41730796,-31.96726132,10.15112512,2
1.61696E+18,-56.28750317,23.5420727,-39.41312327,3.222280377,2
1.61696E+18,-56.27757007,28.50034743,-39.61044851,-2.315368654,2
1.61696E+18,-56.26763696,26.55450679,-34.7470183,-6.586732845,2
1.61696E+18,-56.25770508,15.62495634,-27.98185313,-9.668480131,2
1.61696E+18,-56.24777197,7.719975243,-19.77672998,-11.50565873,2
1.61696E+18,-56.23783911,6.053874507,-14.30896493,-9.001412645,2
1.61696E+18,-56.22790601,7.452777428,-10.84687685,-4.343260091,2
1.61696E+18,-56.21797412,9.057339115,-7.310992875,-1.054248941,2
1.61696E+18,-56.20804102,8.43720406,-3.77872885,1.7738138,2
1.61696E+18,-56.19810791,5.87557721,-1.016793947,4.14905357,2
1.61696E+18,-56.18817603,2.98798413,0.72296473,5.94712269,2
1.61696E+18,-56.17824316,1.031466031,2.221559028,6.889753669,2
1.61696E+18,-56.1683103,1.90972303,2.908376925,6.205589501,2
1.61696E+18,-56.15837817,6.253145033,2.134725964,4.785924948,2
1.61696E+18,-56.14844507,10.50392733,1.649476349,2.961151068,2
1.61696E+18,-56.13851221,12.2149515,1.93712074,0.556375699,2
1.61696E+18,-56.1285791,11.02149691,3.174249045,-0.937167014,2
1.61696E+18,-56.11864697,8.679784151,3.984501013,-1.586738446,2
1.61696E+18,-56.10871436,6.333370078,3.668248952,-2.26217687,2
1.61696E+18,-56.09878125,3.29404739,2.289564643,-1.512098507,2
1.61696E+18,-56.08884912,0.850855782,0.094411391,-0.407083475,2
1.61696E+18,-56.07891602,-1.98511817,-2.253040208,0.693930724,2
1.61696E+18,-56.06898315,-8.611894272,-4.809637247,2.383313479,2
1.61696E+18,-56.05905005,-21.07198139,-4.534349064,3.504558857,2
1.61696E+18,-56.04911792,-32.28321411,3.722742174,1.254728843,2
1.61696E+18,-56.03918506,-27.01030293,15.78418712,-5.577511379,2
1.61696E+18,-56.0292522,10.85042606,10.94812773,-9.708435709,2
1.61696E+18,-56.01932007,28.97071453,5.328876809,-12.87648648,2
1.61696E+18,-56.00938696,21.98366018,12.32062838,-15.02755042,2
1.61696E+18,-55.99945386,-16.58323322,31.82496298,-15.33014337,2
1.61696E+18,-55.98952124,7.000373267,33.22862917,-5.922099892,2
1.61696E+18,-55.97958911,-21.36613852,40.30710976,10.43250577,2
1.61696E+18,-55.96965601,-34.72266244,42.7178604,20.51792011,2
1.61696E+18,-55.9597229,21.58360639,16.54414156,14.45163035,2
1.61696E+18,-55.94979102,14.10367032,8.797043334,6.118695646,2
1.61696E+18,-55.93985791,-4.972479785,11.41783198,2.812355761,2
1.61696E+18,-55.9299248,-3.439237367,11.37166644,1.777863952,2
1.61696E+18,-55.91999316,4.961144736,10.54622684,0.876453749,2
1.61696E+18,-55.9100603,2.560446408,10.17700307,-1.202570932,2
1.61696E+18,-55.9001272,-1.555114642,10.85776298,-5.365686491,2
1.61696E+18,-55.89019409,-3.212261088,11.07229187,-9.646363576,2
1.61696E+18,-55.88026221,0.830496007,7.225578445,-9.539095042,2
1.61696E+18,-55.8703291,4.679281559,2.695949395,-6.644053399,2
1.61696E+18,-55.860396,6.083368897,0.602439824,-4.371639213,2
1.61696E+18,-55.85046411,4.710568385,-1.264934595,-3.347907868,2
1.61696E+18,-55.84053125,3.928694955,-3.464596265,-2.469149641,2
1.61696E+18,-55.83059814,3.47532984,-4.921193834,-1.675440665,2
1.61696E+18,-55.82066504,2.689725406,-6.131894151,-1.156198326,2
1.61696E+18,-55.81073315,1.810963527,-7.292772159,-0.566213641,2
1.61696E+18,-55.80080005,1.053527787,-8.009877642,0.661730071,2
1.61696E+18,-55.79086719,0.445712189,-8.554251061,2.614661105,2
1.61696E+18,-55.78093506,0.330319165,-8.521956227,4.00485991,2
1.61696E+18,-55.7710022,0.272319396,-7.787907792,4.75939876,2
1.61696E+18,-55.76106909,0.152819777,-6.858869285,5.422131432,2
1.61696E+18,-55.75113696,-0.081057441,-5.651124896,5.47664219,2
1.61696E+18,-55.74120386,-1.242469081,-4.234125178,5.188296957,2
1.61696E+18,-55.731271,-3.710257371,-2.013452869,5.048005274,2
1.61696E+18,-55.72133813,-7.666647557,1.092277935,3.315734322,2
1.61696E+18,-55.71140601,-10.11571244,3.179698542,0.356240811,2
1.61696E+18,-55.70147314,-9.055952044,4.151934386,-2.248959807,2
1.61696E+18,-55.69154004,-5.167318466,4.139793866,-4.282344142,2
1.61696E+18,-55.68160791,-1.562107278,3.128051357,-5.348008211,2
1.61696E+18,-55.6716748,-0.00804651,2.526025375,-5.621494897,2
1.61696E+18,-55.66174219,-0.417888727,1.597927364,-4.894535837,2
1.61696E+18,-55.65180908,-1.179700782,-0.191294725,-3.590362579,2
1.61696E+18,-55.6418772,-0.960910732,-1.676682336,-2.181913831,2
1.61696E+18,-55.63194409,0.020592706,-2.526636785,-0.628239743,2
1.61696E+18,-55.62201099,0.524781414,-2.636239315,0.678370971,2
1.61696E+18,-55.6120791,0.29870234,-2.201141094,1.600891036,2
1.61696E+18,-55.602146,-0.013114297,-1.663133703,2.692415376,2
1.61696E+18,-55.59221313,-0.783024354,-0.593062924,3.967669121,2
1.61696E+18,-55.58228027,-1.423624105,0.760976773,4.772549333,2
1.61696E+18,-55.57234814,-1.443649825,1.747785332,4.63002653,2
1.61696E+18,-55.56241504,-1.588801808,1.90784613,3.820495861,2
1.61696E+18,-55.55248193,-1.548048942,1.419205704,2.829490435,2
1.61696E+18,-55.54255005,-1.329182319,0.730755822,2.224310227,2
1.61696E+18,-55.53261719,-1.173665009,0.049759179,1.776601677,2
1.61696E+18,-55.52268408,-1.123491989,-0.566484713,1.027696157,2
1.61696E+18,-55.5127522,-1.074730003,-0.953592518,0.049842474,2
1.61696E+18,-55.50281909,-1.096074405,-1.078732225,-0.836986831,2
1.61696E+18,-55.49288599,-1.230397535,-1.03191962,-1.435640414,2
1.61696E+18,-55.48295288,-1.428225461,-0.864717134,-1.678930407,2
1.61696E+18,-55.473021,-1.76640177,-0.71621584,-1.614958724,2
1.61696E+18,-55.46308813,-2.007500683,-0.504834605,-1.245922875,2
1.61696E+18,-55.45315503,-1.971215902,-0.376803268,-0.753057232,2
1.61696E+18,-55.44322314,-1.777981148,-0.256825474,-0.352631389,2
1.61696E+18,-55.43329004,-1.645744761,-0.076492288,-0.013676789,2
1.61696E+18,-55.42335693,-1.37240479,0.08892916,0.269449832,2
1.61696E+18,-55.4134248,-1.021732573,0.246316355,0.371757529,2
1.61696E+18,-55.40349219,-0.838109697,0.288970671,0.426505311,2
1.61696E+18,-55.39355908,-0.632753129,0.226991477,0.431185285,2
1.61696E+18,-55.38362598,-0.307448029,0.198679575,0.349343891,2
1.61696E+18,-55.37369409,-0.411469508,0.340450098,0.130255881,2
1.61696E+18,-55.36376099,-1.341748955,0.513908138,-0.082591043,2
1.61696E+18,-55.35382788,-2.94648366,0.702326431,-0.097279494,2
1.61696E+18,-55.343896,-3.895726167,0.84411566,0.074369451,2
1.61696E+18,-55.33396338,-3.711190852,0.873867239,0.330081119,2
1.61696E+18,-55.32403027,-3.056104311,0.830267752,0.520596822,2
1.61696E+18,-55.31409717,-2.508711836,0.849601398,0.501001457,2
1.61696E+18,-55.30416504,-1.978756234,1.027103744,-0.014740327,2
1.61696E+18,-55.294229,-1.669112777,0.980742391,-1.025606784,2
1.61696E+18,-55.2842959,-2.952041295,0.183126032,-1.700376807,2
1.61696E+18,-55.27436401,-4.894734866,-0.93116792,-1.715818999,2
1.61696E+18,-55.26443115,-5.16456303,-1.929836428,-1.620040996,2
1.61696E+18,-55.25449805,-4.694184237,-2.692921572,-1.658907171,2
1.61696E+18,-55.24456592,-4.904181909,-3.339136824,-1.572684786,2
1.61696E+18,-55.23463306,-4.920692314,-4.517274595,-1.165290564,2
1.61696E+18,-55.22469995,-2.696243702,-6.503789189,-0.983906408,2
1.61696E+18,-55.21476709,2.25726484,-8.627060861,-1.472321354,2
1.61696E+18,-55.20483496,5.299146857,-10.21516767,-1.918308487,2
1.61696E+18,-55.19490234,3.93080391,-10.21426049,-1.970559776,2
1.61696E+18,-55.18496899,0.115727735,-7.57382665,-1.972637751,2
1.61696E+18,-55.17503711,-3.846442788,-4.278391605,0.582558773,2
1.61696E+18,-55.16510425,-4.28432041,0.122816817,5.288325603,2
1.61696E+18,-55.15517114,-3.707693658,4.260348583,9.969273342,2
1.61696E+18,-55.14523901,-0.89193335,6.475457997,11.48693065,2
1.61696E+18,-55.13530615,6.735788849,3.902672625,7.174531564,2
1.61696E+18,-55.12537329,11.15918923,0.690167207,3.974511242,2
1.61696E+18,-55.11544019,-1.099188737,0.742052877,1.934559073,2
1.61696E+18,-55.10550806,1.609766854,-1.44415076,1.842919192,2
1.61696E+18,-55.09557495,11.35280626,-4.824398178,1.199802783,2
1.61696E+18,-55.08564209,1.048183357,0.014240122,-6.051599548,2
1.61696E+18,-55.07570996,-3.451756949,12.33360944,-18.2794304,2
