time,seconds_elapsed,z,y,x,label
1.61696E+18,-73.61067236,0.063252283,0.031118776,-0.304971666,2
1.61696E+18,-73.60073926,0.192748431,-0.097889881,-0.275069572,2
1.61696E+18,-73.59080713,0.178701055,-0.157682963,-0.264976194,2
1.61696E+18,-73.58087427,-0.037253918,0.118131289,-0.261463363,2
1.61696E+18,-73.57094116,-0.501687978,0.345517903,-0.181685332,2
1.61696E+18,-73.5610083,-0.965150854,0.484742834,-0.151446407,2
1.61696E+18,-73.5510752,-1.276468235,0.709114484,-0.221976718,2
1.61696E+18,-73.54114209,-1.883027185,0.287402983,-0.020874884,2
1.61696E+18,-73.53120923,-2.201753527,-0.948104442,0.618291911,2
1.61696E+18,-73.52127637,-2.072534588,0.785708479,0.319053967,2
1.61696E+18,-73.51134326,-1.0879741,0.506920764,0.982800785,2
1.61696E+18,-73.50141138,0.475779775,-0.494228455,1.695779543,2
1.61696E+18,-73.49147827,0.909134879,-0.960811948,1.737083759,2
1.61696E+18,-73.48154517,1.328003338,-0.984950948,1.393459122,2
1.61696E+18,-73.4716123,1.817642128,-0.839146055,0.774048875,2
1.61696E+18,-73.4616792,1.948963738,-0.361085475,-0.095057726,2
1.61696E+18,-73.45174634,1.767280891,0.014314941,-0.873380333,2
1.61696E+18,-73.44181323,1.076221776,0.28531098,-1.238624388,2
1.61696E+18,-73.43188037,-0.588036035,-0.252642636,-1.636792516,2
1.61696E+18,-73.42194727,-3.083857995,-0.689243078,-2.328430819,2
1.61696E+18,-73.41201416,-3.764806123,0.311879838,-2.478338033,2
1.61696E+18,-73.40208228,-1.936926679,0.965453636,-1.760971269,2
1.61696E+18,-73.39214917,0.166827297,-0.763808197,-1.295139326,2
1.61696E+18,-73.38221606,1.727418836,-1.46106507,-1.748922519,2
1.61696E+18,-73.37228345,0.485952283,0.481065607,-1.121508852,2
1.61696E+18,-73.36235034,-1.278914605,-0.411271355,0.310333339,2
1.61696E+18,-73.35241724,-1.421024152,-0.984552889,0.742089556,2
1.61696E+18,-73.34248413,-0.826365995,-0.513507741,0.715771165,2
1.61696E+18,-73.33255127,-0.173064657,-0.570733018,0.605569062,2
1.61696E+18,-73.32261841,0.46780339,-0.748386756,0.362428998,2
1.61696E+18,-73.31268628,0.773257067,-0.812862443,0.052950815,2
1.61696E+18,-73.30275317,0.654816565,-0.839583277,-0.376143782,2
1.61696E+18,-73.29282007,0.448771357,-0.868307852,-0.738786569,2
1.61696E+18,-73.28288745,0.376160367,-1.025423828,-0.972845062,2
1.61696E+18,-73.27295435,0.40728382,-1.233189796,-1.037238039,2
1.61696E+18,-73.26302124,0.474843956,-1.13963356,-1.026542019,2
1.61696E+18,-73.25308813,0.738625314,-0.567999794,-1.068812742,2
1.61696E+18,-73.24315527,0.942262292,0.371327467,-1.187100245,2
1.61696E+18,-73.23322241,0.720658207,1.288140699,-1.42773344,2
1.61696E+18,-73.22329028,0.10014851,1.640882124,-1.655197795,2
1.61696E+18,-73.21335718,-0.624729397,1.435998434,-1.673553098,2
1.61696E+18,-73.20342407,-0.983081647,0.64824179,-1.287017248,2
1.61696E+18,-73.19349121,-0.757398915,-0.267432209,-0.689266459,2
1.61696E+18,-73.18355835,-0.234356489,-0.881471869,-0.300074103,2
1.61696E+18,-73.17362524,0.20440325,-1.141909104,-0.152031075,2
1.61696E+18,-73.16369214,0.341170814,-1.060325046,-0.104767512,2
1.61696E+18,-73.15375928,0.167887528,-0.761151545,-0.02969152,2
1.61696E+18,-73.14382642,-0.118549825,-0.3021569,0.102194738,2
1.61696E+18,-73.13389429,-0.252581243,0.108629302,0.21796529,2
1.61696E+18,-73.12396118,-0.257259774,0.274415492,0.280941094,2
1.61696E+18,-73.11402832,-0.114365215,0.258624633,0.249343302,2
1.61696E+18,-73.10409521,0.046812015,0.072010174,0.074333503,2
1.61696E+18,-73.09416235,-0.01176059,-0.160734752,-0.045606882,2
1.61696E+18,-73.08422925,-0.263904619,-0.287106631,0.000471709,2
1.61696E+18,-73.07429614,-0.50441901,-0.275060804,0.178973004,2
1.61696E+18,-73.06436328,-0.766138686,-0.090362992,0.520261599,2
1.61696E+18,-73.05443042,-1.025326213,0.238076935,0.971104063,2
1.61696E+18,-73.04449731,-1.271038173,0.616584669,1.461689486,2
1.61696E+18,-73.03456543,-1.345939977,0.925082463,2.003229435,2
1.61696E+18,-73.02463232,-1.076404074,1.160838261,2.57231717,2
1.61696E+18,-73.01469922,-0.557528669,1.282522859,3.062277739,2
1.61696E+18,-73.00476611,0.055761014,1.120780976,3.375793361,2
1.61696E+18,-72.99483325,0.736214672,0.833455734,3.305480054,2
1.61696E+18,-72.98490039,1.250004737,0.546156795,2.948520719,2
1.61696E+18,-72.97496729,1.524053149,0.381909652,2.312523202,2
1.61696E+18,-72.96503418,1.742660829,0.375803151,1.499643369,2
1.61696E+18,-72.95510132,1.963163528,0.733767279,0.4761527,2
1.61696E+18,-72.94516943,2.057748522,1.027422893,-0.491532129,2
1.61696E+18,-72.93523633,1.549776788,0.963525883,-1.096451275,2
1.61696E+18,-72.92530322,0.793864897,0.663538143,-1.498016644,2
1.61696E+18,-72.91537012,0.495878561,0.262946588,-1.828478725,2
1.61696E+18,-72.90543726,0.925095907,-0.107119482,-2.156555226,2
1.61696E+18,-72.89550439,1.108911674,-0.424803621,-2.133508404,2
1.61696E+18,-72.88557129,0.909025062,-0.932321766,-1.899401542,2
1.61696E+18,-72.87563818,0.46212191,-1.462916836,-1.537939343,2
1.61696E+18,-72.86570532,-0.195181211,-1.797408318,-1.083733979,2
1.61696E+18,-72.85577319,-0.667204191,-1.956763014,-0.663710139,2
1.61696E+18,-72.84584033,-1.241570233,-1.963378632,-0.050722325,2
1.61696E+18,-72.83590723,-1.665535065,-1.524362946,0.56518459,2
1.61696E+18,-72.82597412,-1.499644684,-0.800329125,0.818913195,2
1.61696E+18,-72.81604126,-1.131736085,-0.101347912,0.639681175,2
1.61696E+18,-72.8061084,-0.512565053,0.250741186,0.243882845,2
1.61696E+18,-72.79617529,-0.288443944,0.125222124,-0.021120749,2
1.61696E+18,-72.78624219,-0.686226214,-0.068261051,-0.067711527,2
1.61696E+18,-72.77630908,-1.183190524,0.091070849,-0.101621249,2
1.61696E+18,-72.7663772,-1.79651283,0.530268906,-0.400583957,2
1.61696E+18,-72.75644434,-2.70520413,1.288015027,-1.074048743,2
1.61696E+18,-72.74651123,-3.368500282,1.643231902,-1.32138392,2
1.61696E+18,-72.73657813,-3.095046913,0.858355197,-0.187809806,2
1.61696E+18,-72.72664526,-1.772688303,-0.225816004,1.991351804,2
1.61696E+18,-72.7167124,-0.811663589,-0.613142419,4.057438531,2
1.61696E+18,-72.7067793,-1.006810898,-0.427974653,4.911067577,2
1.61696E+18,-72.69684619,-1.797348989,-0.234007493,4.62934147,2
1.61696E+18,-72.68691333,-3.460145715,-0.373094477,3.765395029,2
1.61696E+18,-72.6769812,-5.370440992,-0.700195265,2.820698641,2
1.61696E+18,-72.6670481,-5.686720526,-0.795012898,1.857878276,2
1.61696E+18,-72.65711523,-4.861791505,-1.09149,1.038278707,2
1.61696E+18,-72.64718237,-1.596897436,-1.835944677,0.359017144,2
1.61696E+18,-72.63724927,1.839876756,-2.923925792,-0.795314219,2
1.61696E+18,-72.62731616,1.882232381,-3.907750951,-2.032295517,2
1.61696E+18,-72.6173833,0.84111414,-4.28285969,-3.030788376,2
1.61696E+18,-72.6074502,1.139367895,-4.57227226,-3.59975643,2
1.61696E+18,-72.59751831,3.210243903,-4.951059396,-3.48334422,2
1.61696E+18,-72.58758521,5.634892723,-5.048970904,-3.279433466,2
1.61696E+18,-72.5776521,4.94264228,-4.854219316,-3.34602483,2
1.61696E+18,-72.56771924,3.164911892,-3.949338514,-1.846887511,2
1.61696E+18,-72.55778638,4.231187955,-2.743869669,1.883906452,2
1.61696E+18,-72.54785327,3.716819506,-1.338817578,4.203748744,2
1.61696E+18,-72.53792017,6.923192997,1.532152284,3.707603934,2
1.61696E+18,-72.5279873,7.836890142,8.217174823,0.303161694,2
1.61696E+18,-72.51805444,5.088126272,19.4893837,-4.140198355,2
1.61696E+18,-72.50812231,-1.075067857,29.25893994,-7.972409789,2
1.61696E+18,-72.49818921,-3.066476652,32.55447435,-6.941352923,2
1.61696E+18,-72.4882561,-2.092840002,30.25003655,-0.607996727,2
1.61696E+18,-72.47832324,-3.934048591,27.42728916,3.081537151,2
1.61696E+18,-72.46839038,-5.083554141,23.00963638,4.119929766,2
1.61696E+18,-72.45845728,-5.009301157,18.82391722,4.56156265,2
1.61696E+18,-72.44852417,-5.888846442,15.37152168,4.438519623,2
1.61696E+18,-72.43859106,-6.87687782,12.70994217,3.755874044,2
1.61696E+18,-72.42865918,-8.278981583,10.35006714,2.419210721,2
1.61696E+18,-72.41872632,-10.63727314,7.979027161,0.408243239,2
1.61696E+18,-72.40879321,-11.98226853,5.371956073,-2.26988686,2
1.61696E+18,-72.39886011,-10.90710949,2.514272393,-6.162572197,2
1.61696E+18,-72.38892725,-9.899397257,1.261577686,-11.37925938,2
1.61696E+18,-72.37899438,-12.47521571,0.414293333,-15.03865517,2
1.61696E+18,-72.36906128,-13.16228963,-0.727408266,-12.27759354,2
1.61696E+18,-72.35912817,-5.510116005,-0.985365374,-4.044864589,2
1.61696E+18,-72.34919531,7.864244598,-1.257638593,0.839675924,2
1.61696E+18,-72.33926318,11.51539453,-2.465092475,1.726560758,2
1.61696E+18,-72.32933008,12.69076868,-3.791105516,0.39241994,2
1.61696E+18,-72.31939722,16.32538424,-4.735521625,-2.483937461,2
1.61696E+18,-72.30946436,17.33124588,-7.48931063,-3.540867311,2
1.61696E+18,-72.29953125,18.62325553,-5.639386528,-3.454171609,2
1.61696E+18,-72.28959814,19.23565327,-3.968714246,-3.094444271,2
1.61696E+18,-72.27966528,14.10585526,-4.21752008,-2.165324223,2
1.61696E+18,-72.26973218,-7.771902999,-4.690924358,-0.054165269,2
1.61696E+18,-72.25980029,-11.23537347,-5.257796025,-0.530960322,2
1.61696E+18,-72.24986719,11.81624561,-7.950357531,0.96947237,2
1.61696E+18,-72.23993408,41.78691811,-15.1733594,5.991439386,2
1.61696E+18,-72.23000146,35.8299433,-22.60080541,13.49934366,2
1.61696E+18,-72.22006836,19.26814216,-28.09021882,13.86937875,2
1.61696E+18,-72.21013525,13.02796416,-27.19134573,6.894937209,2
1.61696E+18,-72.20020215,13.85422443,-21.20769802,-1.199338672,2
1.61696E+18,-72.19026929,14.99419175,-18.49889966,-3.611677754,2
1.61696E+18,-72.1803374,14.3941134,-17.15223605,-1.967310127,2
1.61696E+18,-72.1704043,14.52099907,-15.40419645,-0.731574153,2
1.61696E+18,-72.16047119,14.46549638,-13.93329505,0.351223714,2
1.61696E+18,-72.15053809,13.43868314,-11.64865149,2.570763803,2
1.61696E+18,-72.14060522,10.93544243,-8.808758906,4.697151855,2
1.61696E+18,-72.13067236,7.755956072,-5.008485164,5.350759555,2
1.61696E+18,-72.12073926,5.110575419,-1.134478662,4.880305651,2
1.61696E+18,-72.11080615,4.402671772,1.622265102,4.415615717,2
1.61696E+18,-72.10087305,7.271785485,2.773556367,4.598714277,2
1.61696E+18,-72.09094116,11.62231177,2.75191269,4.206269787,2
1.61696E+18,-72.0810083,13.31100603,2.490746556,2.60558991,2
1.61696E+18,-72.0710752,10.79015016,2.997181582,0.307499431,2
1.61696E+18,-72.06114209,2.337049594,1.795041004,-0.881974412,2
1.61696E+18,-72.05120923,-12.31107028,2.122248759,0.091503249,2
1.61696E+18,-72.04127637,-32.21802121,7.64339703,2.486252167,2
1.61696E+18,-72.03134326,-53.01700516,17.39230737,-1.528110608,2
1.61696E+18,-72.02141016,-44.92682006,24.03804186,-12.05561083,2
1.61696E+18,-72.01147827,8.371534779,15.69186422,-13.69353118,2
1.61696E+18,-72.00154517,45.53017758,8.443372519,-10.12142439,2
1.61696E+18,-71.9916123,33.21800022,16.71674971,-6.151344701,2
1.61696E+18,-71.9816792,-41.77663987,19.33492496,-17.13699055,2
1.61696E+18,-71.97174609,-16.67058767,12.4223422,-12.67578856,2
1.61696E+18,-71.96181299,34.48805172,10.53592289,-4.315265876,2
1.61696E+18,-71.95188013,14.84931917,9.389202587,-2.238271094,2
1.61696E+18,-71.94194702,3.668956223,12.00855916,4.245680883,2
1.61696E+18,-71.93201514,6.507567538,12.79045188,8.636797242,2
1.61696E+18,-71.92208203,2.669894624,14.75690626,10.17082,2
1.61696E+18,-71.91214893,-17.3835337,25.67591662,14.42486393,2
1.61696E+18,-71.90221582,-30.11761195,42.48786273,8.609203717,2
1.61696E+18,-71.89228296,-1.666917605,25.88671859,-0.935547304,2
1.61696E+18,-71.8823501,8.603671218,7.128828967,-1.900264297,2
1.61696E+18,-71.87241699,2.984318593,3.318488004,-3.145647804,2
1.61696E+18,-71.86248389,-2.840894457,0.65892685,-3.414698261,2
1.61696E+18,-71.85255176,-2.346584169,-2.459189973,-3.579365384,2
1.61696E+18,-71.84261914,2.440733402,-4.280173812,-3.904997268,2
1.61696E+18,-71.83268604,4.45709982,-5.361859042,-4.804790099,2
1.61696E+18,-71.82275293,-0.992763083,-6.228295839,-7.929672471,2
1.61696E+18,-71.81281982,-4.915089672,-7.619688238,-9.934339976,2
1.61696E+18,-71.80288721,-2.738849795,-7.993509275,-7.292492173,2
1.61696E+18,-71.7929541,-1.191624444,-6.835802883,-3.380721757,2
1.61696E+18,-71.783021,-0.28331133,-6.075864805,0.152541216,2
1.61696E+18,-71.77308887,-0.518045384,-5.827990114,2.368484451,2
1.61696E+18,-71.76315601,-1.259005205,-5.113145562,3.700330143,2
1.61696E+18,-71.7532229,-1.522769539,-4.420605781,4.832508127,2
1.61696E+18,-71.74329004,-1.323127257,-4.134565318,5.698857538,2
1.61696E+18,-71.73335693,-0.754650493,-3.77618501,5.830011975,2
1.61696E+18,-71.72342383,0.119973154,-3.079661128,5.150599971,2
1.61696E+18,-71.71349097,1.176816751,-2.522363345,3.857074072,2
1.61696E+18,-71.70355811,2.182859588,-1.96563138,2.415141865,2
1.61696E+18,-71.69362598,2.88951265,-1.267750237,1.121852989,2
1.61696E+18,-71.68369287,3.256702287,-0.706495826,0.177225868,2
1.61696E+18,-71.67376001,3.08277663,-0.688093323,-0.530454784,2
1.61696E+18,-71.6638269,2.320907291,-1.184338964,-1.129800441,2
1.61696E+18,-71.65389404,1.052141813,-1.901810942,-1.615215768,2
1.61696E+18,-71.64396094,-1.844442895,-2.622747381,-1.924588298,2
1.61696E+18,-71.63402808,-7.553876334,-2.40113409,-2.409592706,2
1.61696E+18,-71.62409619,-6.475253999,-2.47338801,-2.601770936,2
1.61696E+18,-71.61416309,-2.530513334,-3.438669212,-2.539881466,2
1.61696E+18,-71.60422998,1.646669767,-4.238879094,-2.454625441,2
1.61696E+18,-71.59429712,3.521941077,-4.851859601,-1.991141084,2
1.61696E+18,-71.58436401,2.13509129,-5.495813923,-1.300975631,2
1.61696E+18,-71.57443091,-0.445267441,-5.648760505,-1.003947617,2
1.61696E+18,-71.5644978,-2.539725107,-5.23910886,-0.407182625,2
1.61696E+18,-71.55456494,-4.494256708,-4.585544998,0.679189886,2
1.61696E+18,-71.5446333,-5.392687895,-3.927144218,2.168478596,2
1.61696E+18,-71.5347002,-6.946859704,-2.863864414,2.867790648,2
1.61696E+18,-71.52476709,-9.281671017,-1.240586336,2.270558914,2
1.61696E+18,-71.51483374,-7.946402072,-0.025389877,1.436308522,2
1.61696E+18,-71.50490112,0.436577354,0.958216086,2.119819779,2
1.61696E+18,-71.49496802,11.02189556,1.493579685,3.952361661,2
1.61696E+18,-71.48503491,13.68605632,0.870206963,5.660845495,2
1.61696E+18,-71.47510181,5.198774512,-1.638011537,5.859032903,2
1.61696E+18,-71.46517017,0.973209949,-2.562825704,5.527008103,2
1.61696E+18,-71.45523706,12.31503334,-1.419641757,3.226758984,2
1.61696E+18,-71.4453042,13.64676358,3.379420319,-2.070752673,2
1.61696E+18,-71.43537109,8.838502887,13.87985338,-7.387745276,2
1.61696E+18,-71.42543799,7.987579301,26.12164963,-10.41643025,2
1.61696E+18,-71.41550513,4.557957611,39.81859909,-13.17964759,2
1.61696E+18,-71.40557202,-5.168009371,50.70693725,-13.87588915,2
1.61696E+18,-71.39564014,-17.11794215,49.86113875,-7.901113316,2
1.61696E+18,-71.38570728,-5.931793603,34.05964628,0.50204059,2
1.61696E+18,-71.37577417,-4.272750969,23.94973697,3.797254102,2
1.61696E+18,-71.36584106,-8.239626309,17.92408084,2.218908514,2
1.61696E+18,-71.3559082,-10.25161261,13.25355454,-1.344349201,2
1.61696E+18,-71.34597534,-13.40432729,8.959712853,-3.616661972,2
1.61696E+18,-71.33604199,-16.81858511,4.135325781,-4.949013569,2
1.61696E+18,-71.32610889,-17.63491318,-0.170897834,-8.900070578,2
1.61696E+18,-71.316177,-17.01567771,-0.844157745,-14.44092542,2
1.61696E+18,-71.30624438,-17.35073267,2.492317166,-17.4416644,2
1.61696E+18,-71.29631128,-23.75045943,9.06364669,-14.26699041,2
1.61696E+18,-71.28637817,-28.44691511,12.33551498,-6.684019499,2
1.61696E+18,-71.27644507,-14.95404679,8.377100596,-1.316817051,2
1.61696E+18,-71.26651196,6.929208312,5.047615982,3.453562537,2
1.61696E+18,-71.25657935,22.62390571,2.205993795,5.041155262,2
1.61696E+18,-71.246646,28.78429881,-1.548268137,4.438077725,2
1.61696E+18,-71.23671411,24.64093176,-5.069729614,3.037616468,2
1.61696E+18,-71.22678101,18.54404346,-6.592654051,-2.278162959,2
1.61696E+18,-71.21684814,18.07498802,-7.936332513,-6.421947356,2
1.61696E+18,-71.20691528,22.79083347,-5.953870995,-7.579507034,2
1.61696E+18,-71.19698218,25.4187831,-5.209805609,-5.348302225,2
1.61696E+18,-71.18704907,15.09509426,-4.016916844,-0.643117725,2
1.61696E+18,-71.17711621,-9.869841492,-1.070253735,2.377239127,2
1.61696E+18,-71.16718408,-11.7253922,0.59822659,3.750960553,2
1.61696E+18,-71.15725122,14.09395673,-4.054861082,3.772337687,2
1.61696E+18,-71.14731812,26.66992415,-10.66040852,10.27121631,2
1.61696E+18,-71.13738525,21.87170086,-13.8397809,18.92411713,2
1.61696E+18,-71.12745215,16.6047635,-16.70937655,16.23623764,2
1.61696E+18,-71.11751929,19.10119803,-20.59271085,7.335881818,2
1.61696E+18,-71.10758618,21.92542543,-21.20441535,1.565655033,2
1.61696E+18,-71.09765308,22.12894894,-21.10237185,-0.368190192,2
1.61696E+18,-71.08772119,21.02990049,-20.7656171,-0.858807764,2
1.61696E+18,-71.07778809,19.56846951,-20.66407863,-2.259664595,2
1.61696E+18,-71.06785498,17.2664563,-20.59274124,-4.28837027,2
1.61696E+18,-71.05792212,13.67261699,-19.37557729,-5.937668048,2
1.61696E+18,-71.04798926,10.57230236,-16.38316774,-5.979443243,2
1.61696E+18,-71.03805615,7.575094478,-12.59613342,-4.194436726,2
1.61696E+18,-71.02812305,6.498464194,-9.837833074,-1.897397801,2
1.61696E+18,-71.01819092,6.425532813,-7.783968699,0.209218285,2
1.61696E+18,-71.0082583,5.259555436,-6.105342828,2.285044389,2
1.61696E+18,-70.9983252,3.97550639,-3.705016548,4.63947708,2
1.61696E+18,-70.98839209,5.322386278,-0.132638538,5.737023311,2
1.61696E+18,-70.97845898,8.269172137,2.348020924,4.663527525,2
1.61696E+18,-70.96852612,11.19941486,1.906640262,2.794608215,2
1.61696E+18,-70.95859302,9.709113755,2.029077139,1.850056205,2
1.61696E+18,-70.94866113,5.001479085,2.139843453,1.784071574,2
1.61696E+18,-70.93872803,-1.108536411,1.321436819,2.317388177,2
1.61696E+18,-70.92879517,-6.717391023,1.752117808,1.118224131,2
1.61696E+18,-70.91886206,-9.152884478,1.652163396,-0.856629981,2
1.61696E+18,-70.9089292,-10.88146301,1.194498539,-2.024871212,2
1.61696E+18,-70.89899609,-14.42295839,0.152744338,-2.139529711,2
1.61696E+18,-70.88906299,-16.56344131,-0.62067866,-2.984737111,2
1.61696E+18,-70.8791311,-9.542594574,-0.356454308,-6.048451897,2
1.61696E+18,-70.869198,8.47290841,-1.731862956,-6.760797618,2
1.61696E+18,-70.85926514,18.58997051,-0.940958662,-3.45504167,2
1.61696E+18,-70.84933228,11.60978429,6.250946062,-3.105059188,2
1.61696E+18,-70.83939917,-6.592786153,28.58188356,-13.14051151,2
1.61696E+18,-70.82946606,-6.429094305,52.94769957,-24.08202362,2
1.61696E+18,-70.8195332,-23.44004557,59.94479601,-23.9625871,2
1.61696E+18,-70.8096001,-14.54060861,43.13347884,-8.047317438,2
1.61696E+18,-70.79966821,10.68466501,27.59768197,2.594199624,2
1.61696E+18,-70.78973511,12.75038641,16.59609621,1.152638734,2
1.61696E+18,-70.779802,2.591295427,10.10378352,-1.084715975,2
1.61696E+18,-70.7698689,-0.330659941,7.680207296,-0.33929333,2
1.61696E+18,-70.75993628,2.03958655,5.557229053,1.392715611,2
1.61696E+18,-70.75000317,2.336537991,4.665767121,2.904699113,2
1.61696E+18,-70.74007007,1.102597377,6.554165623,2.417824236,2
1.61696E+18,-70.73013794,0.688514325,8.155370401,-0.07408625,2
1.61696E+18,-70.72020508,0.798476775,8.700099794,-1.998979523,2
1.61696E+18,-70.71027222,-0.274973856,8.052673997,-3.218705734,2
1.61696E+18,-70.70033911,-4.014618503,5.625123609,-4.800918518,2
1.61696E+18,-70.69040601,-2.992265461,1.635513875,-3.399957788,2
1.61696E+18,-70.68047314,-1.076170119,-1.424581552,-1.879582743,2
1.61696E+18,-70.67054028,0.292174509,-3.799589267,-0.725641256,2
1.61696E+18,-70.66060815,0.88799053,-5.811201476,0.676513945,2
1.61696E+18,-70.65067505,0.244115119,-7.320284435,1.699829987,2
1.61696E+18,-70.64074219,-0.512646704,-8.264438678,3.046779433,2
1.61696E+18,-70.63080908,-1.043681954,-9.240531197,4.813940497,2
1.61696E+18,-70.62087622,-1.355216339,-9.947956998,6.166451085,2
1.61696E+18,-70.61094312,-1.551439169,-10.02873091,6.868654766,2
1.61696E+18,-70.60101001,-1.67351072,-9.844155263,7.108603925,2
1.61696E+18,-70.59107813,-1.327278531,-9.325544646,6.481452269,2
1.61696E+18,-70.58114502,-0.321218159,-8.271948031,5.244273696,2
1.61696E+18,-70.57121191,0.596262596,-6.842513778,3.533514903,2
1.61696E+18,-70.56127905,0.783731626,-5.544715024,1.953556034,2
1.61696E+18,-70.55134619,0.420397495,-4.470236365,0.498669653,2
1.61696E+18,-70.54141309,-1.19981535,-3.475653665,-0.893469473,2
1.61696E+18,-70.53147998,-5.212789593,-1.85360659,-2.640168764,2
1.61696E+18,-70.52154785,-9.257676978,-0.574126752,-4.269330931,2
1.61696E+18,-70.51161523,-9.69916227,-1.238190381,-4.736724279,2
1.61696E+18,-70.50168213,-7.654218284,-2.787922746,-4.709454579,2
1.61696E+18,-70.49174902,-4.700310611,-4.542159446,-4.258426091,2
1.61696E+18,-70.48181592,-1.95841838,-6.162689102,-3.545232228,2
1.61696E+18,-70.4718833,0.482118404,-7.50264299,-2.89085179,2
1.61696E+18,-70.4619502,2.459565236,-8.436497957,-2.365904663,2
1.61696E+18,-70.45201807,3.222600111,-8.678630889,-1.885512426,2
1.61696E+18,-70.44208496,2.204710623,-8.003069131,-2.115900852,2
1.61696E+18,-70.4321521,-2.927624646,-5.612403244,-4.26516592,2
1.61696E+18,-70.42221899,-11.8388783,-2.061092572,-6.344513988,2
1.61696E+18,-70.41228613,-19.37043817,1.779623655,-7.065414187,2
1.61696E+18,-70.40235303,-18.08259382,5.585384888,-6.434728512,2
1.61696E+18,-70.39241992,-6.255170402,6.886579715,-4.488160729,2
1.61696E+18,-70.38248804,7.015797046,5.359993248,-0.81278061,2
1.61696E+18,-70.37255493,9.506685057,3.443967318,5.354308188,2
1.61696E+18,-70.36262207,7.94779791,0.521749499,12.68912501,2
1.61696E+18,-70.35268921,4.806712299,-2.054677444,16.21287196,2
1.61696E+18,-70.3427561,-2.167476725,-4.875964699,16.57746983,2
1.61696E+18,-70.332823,3.665575349,-5.452694912,15.11612653,2
1.61696E+18,-70.32289014,7.541635276,-0.594609568,11.96827858,2
1.61696E+18,-70.31295825,8.819026033,9.534337618,5.153824194,2
1.61696E+18,-70.30302515,8.87423471,25.64797413,-5.080530994,2
1.61696E+18,-70.29309204,12.07156945,47.87067805,-15.96509547,2
1.61696E+18,-70.28315894,1.77676242,62.93590207,-24.47055298,2
1.61696E+18,-70.27322607,-19.84653359,46.25295994,-14.91246273,2
1.61696E+18,-70.26329321,-0.019134324,25.62858203,-4.272849753,2
1.61696E+18,-70.25336011,2.7934003,16.14184554,-3.511562891,2
1.61696E+18,-70.24342798,-0.597818557,11.04781677,-3.692417178,2
1.61696E+18,-70.23349487,-3.740421039,9.047101214,-6.203569394,2
1.61696E+18,-70.22356201,-12.36790217,8.970429477,-12.80726506,2
1.61696E+18,-70.21362915,-16.44761829,7.292655255,-17.6367556,2
1.61696E+18,-70.20369604,-10.58316044,3.75446067,-17.47203031,2
1.61696E+18,-70.19376294,-6.407932275,1.291203009,-16.47327296,2
1.61696E+18,-70.18383105,-9.666367085,1.07847562,-15.1336879,2
1.61696E+18,-70.17389795,-15.43890653,1.200294658,-9.129827428,2
1.61696E+18,-70.16396509,-16.08901528,3.616639176,-0.380318875,2
1.61696E+18,-70.15403198,-7.771888385,7.62070063,8.008151549,2
1.61696E+18,-70.14409912,7.447672798,9.385006304,14.07709445,2
1.61696E+18,-70.13416602,12.78073478,7.584405327,15.88530356,2
1.61696E+18,-70.12423315,16.39352547,3.515141626,11.14726381,2
1.61696E+18,-70.11430103,18.33795975,2.179596202,0.475531207,2
1.61696E+18,-70.10436816,16.59053857,0.754428374,-7.708229276,2
1.61696E+18,-70.09443506,13.35670044,-1.596809758,-11.66629236,2
1.61696E+18,-70.08450195,14.35586462,-3.345499345,-12.40862698,2
1.61696E+18,-70.07456885,15.29552799,-4.030817359,-10.36586677,2
1.61696E+18,-70.06463599,4.409923643,-2.694132701,-7.714373185,2
1.61696E+18,-70.05470313,-5.107479791,-0.802069247,-6.768691586,2
1.61696E+18,-70.044771,2.790689288,-1.436129366,-7.66544578,2
1.61696E+18,-70.03483789,24.86239074,-5.20996869,-5.057188697,2
1.61696E+18,-70.02490479,30.4175652,-13.45290105,9.215171715,2
1.61696E+18,-70.01497217,23.44162612,-17.50521011,17.15726177,2
1.61696E+18,-70.00503906,24.2822551,-18.29276218,8.700351138,2
1.61696E+18,-69.99510596,28.71569465,-19.17920014,-4.655074462,2
1.61696E+18,-69.98517285,27.87892117,-18.65078885,-10.28068089,2
1.61696E+18,-69.97524146,23.2003308,-17.86995177,-8.802474127,2
1.61696E+18,-69.96530835,20.94556801,-18.00060644,-7.792864538,2
1.61696E+18,-69.95537549,19.05876993,-18.71250618,-9.018959407,2
1.61696E+18,-69.94544238,14.80236921,-19.40916508,-10.72122451,2
1.61696E+18,-69.93550952,13.14399994,-18.75610216,-10.5514852,2
1.61696E+18,-69.92557642,12.71100834,-15.68191332,-6.98291126,2
1.61696E+18,-69.91564429,10.82056167,-12.30566579,-3.046022478,2
1.61696E+18,-69.90571167,8.207583403,-9.869591317,-0.104550581,2
1.61696E+18,-69.89577856,6.079178459,-8.285720536,2.11971135,2
1.61696E+18,-69.88584546,4.895752519,-8.239099655,4.18399658,2
1.61696E+18,-69.87591235,3.555899168,-8.503773504,6.919812122,2
1.61696E+18,-69.86597949,3.146387809,-7.877540717,8.170417748,2
1.61696E+18,-69.85604663,5.213195836,-7.256327219,6.398606228,2
1.61696E+18,-69.8461145,7.59607823,-6.621772009,4.499533187,2
1.61696E+18,-69.8361814,6.320763694,-4.772900046,2.95252674,2
1.61696E+18,-69.82624829,4.727292726,-1.97527073,1.190853022,2
1.61696E+18,-69.81631543,2.990678192,0.073676646,-0.112812432,2
1.61696E+18,-69.80638257,-2.951274402,1.766241611,-0.957208078,2
1.61696E+18,-69.79644946,-11.47015487,6.179143393,-2.594833538,2
1.61696E+18,-69.78651636,-16.63273404,12.7274638,-4.365230515,2
1.61696E+18,-69.77658447,-24.37579497,22.61156529,-5.956396129,2
1.61696E+18,-69.76665137,-46.72275187,45.56280793,-10.12495373,2
1.61696E+18,-69.75671851,-36.51085285,50.22878431,-12.82887601,2
1.61696E+18,-69.7467854,46.12124144,26.21390355,-14.49576877,2
1.61696E+18,-69.73685229,41.42353254,18.59236121,-12.78174835,2
1.61696E+18,-69.72691943,-32.45371213,15.90746863,-10.6263987,2
1.61696E+18,-69.7169873,-20.91029562,12.51073945,1.911417267,2
1.61696E+18,-69.70705444,28.30351319,6.630266282,7.090438153,2
1.61696E+18,-69.69712158,24.70488547,3.866022518,7.960100342,2
1.61696E+18,-69.68718848,14.99508607,7.61882373,5.934434473,2
1.61696E+18,-69.67725537,12.25324119,13.45834295,3.382407811,2
1.61696E+18,-69.66732227,12.33001463,16.42324724,1.150401184,2
1.61696E+18,-69.6573894,5.950918575,22.45237192,-2.924435787,2
1.61696E+18,-69.64745752,-25.78112822,37.62371238,-8.627786837,2
1.61696E+18,-69.63752441,-25.65242117,32.02039203,-5.537339527,2
1.61696E+18,-69.62759131,3.971508261,10.61718546,-2.167795582,2
1.61696E+18,-69.6176582,3.286154884,4.024992598,-2.76918765,2
1.61696E+18,-69.60772559,0.781816732,0.910545988,-3.210015354,2
1.61696E+18,-69.59779248,-2.296749002,-0.980188264,-5.409738399,2
1.61696E+18,-69.58786035,-4.009824255,-3.889668766,-7.949507052,2
1.61696E+18,-69.57792725,-2.476471655,-6.050521689,-7.952040954,2
1.61696E+18,-69.56799438,-0.356734878,-6.614763007,-5.638399855,2
1.61696E+18,-69.55806152,0.192025378,-6.831774942,-2.96325447,2
1.61696E+18,-69.54812842,-0.306965762,-6.973694519,0.013972119,2
1.61696E+18,-69.53819531,-0.66208093,-6.709304747,2.919799944,2
1.61696E+18,-69.52826245,-0.867699364,-6.512278785,5.370387216,2
1.61696E+18,-69.51833032,-1.126623272,-6.443471206,7.233083122,2
1.61696E+18,-69.50839722,-1.066734913,-6.25113194,7.844007865,2
1.61696E+18,-69.49846436,-0.487922633,-6.070418814,7.058140396,2
1.61696E+18,-69.48853149,-0.034012087,-6.543290009,5.40778025,2
1.61696E+18,-69.47859839,-0.002200652,-6.578336772,3.831213655,2
1.61696E+18,-69.46866528,0.184775553,-5.946425355,2.584947227,2
1.61696E+18,-69.45873315,0.143735138,-5.632318489,1.748261717,2
1.61696E+18,-69.44880054,-0.35584878,-5.629690479,1.272312723,2
1.61696E+18,-69.43886743,-1.194596154,-5.562330761,0.956296224,2
1.61696E+18,-69.42893433,-2.710910233,-5.033095874,0.564698122,2
1.61696E+18,-69.41900122,-5.299677603,-3.740115918,-0.419084513,2
1.61696E+18,-69.40906836,-8.496445938,-1.962724552,-1.761005318,2
1.61696E+18,-69.3991355,-10.87426403,-0.398119028,-2.646366157,2
1.61696E+18,-69.38920337,-11.53941137,0.875288797,-2.628969032,2
1.61696E+18,-69.37927026,-11.42021566,1.43032331,-1.571372096,2
1.61696E+18,-69.36933716,-10.76276999,1.413267546,-0.221122001,2
1.61696E+18,-69.35940454,-8.447372403,1.35261171,0.31037031,2
1.61696E+18,-69.34947144,-4.770917348,0.75339494,0.264921687,2
1.61696E+18,-69.33953833,-3.967022932,-0.322671865,0.233605342,2
1.61696E+18,-69.32960669,-5.206364528,-1.93797648,-0.214950034,2
1.61696E+18,-69.31967334,-0.293934139,-2.935382421,-3.276570186,2
1.61696E+18,-69.30974023,6.004284839,-2.832787139,-8.097441359,2
1.61696E+18,-69.29980737,5.424898558,-1.462203134,-8.52427561,2
1.61696E+18,-69.28987427,8.412507425,-1.907375006,-2.268315227,2
1.61696E+18,-69.27994141,11.2404331,-3.841036545,5.425640901,2
1.61696E+18,-69.2700083,13.56693309,-5.206185665,9.74179262,2
1.61696E+18,-69.26007642,11.40117545,-5.942341885,10.96605852,2
1.61696E+18,-69.2501438,10.62362923,-3.139143829,9.833161575,2
1.61696E+18,-69.24021069,13.82357444,1.837066959,6.619277855,2
1.61696E+18,-69.23027734,15.59878028,12.25026246,1.862163991,2
1.61696E+18,-69.22034424,10.91509289,24.8553531,-4.492112974,2
1.61696E+18,-69.21041138,2.873036731,37.89297122,-11.31745905,2
1.61696E+18,-69.20047949,-12.34704058,53.20062453,-11.65412262,2
1.61696E+18,-69.19054663,-28.87183915,47.50077389,0.578925677,2
1.61696E+18,-69.18061353,2.386394786,24.4108733,1.394352126,2
1.61696E+18,-69.17068042,4.770923778,15.04672975,-1.621918626,2
1.61696E+18,-69.16074756,-2.654478736,11.5645084,0.403651236,2
1.61696E+18,-69.1508147,-9.34428734,10.86726731,0.63776482,2
1.61696E+18,-69.14088257,-11.650785,11.12270103,-5.061958396,2
1.61696E+18,-69.13094946,-9.507185407,9.481780332,-9.030288611,2
1.61696E+18,-69.1210166,-7.877361853,5.596823982,-10.07266825,2
1.61696E+18,-69.1110835,-6.705097358,1.451007787,-11.82056873,2
1.61696E+18,-69.10115063,-8.009932587,-0.797979931,-13.77767661,2
1.61696E+18,-69.09121753,-11.66954231,-0.052016603,-16.42323321,2
1.61696E+18,-69.08128564,-21.23808848,1.806161533,-13.31867145,2
1.61696E+18,-69.07135254,-25.77928581,6.052734105,-2.396871172,2
1.61696E+18,-69.06141943,-2.603836929,6.346515391,3.002573797,2
1.61696E+18,-69.05148633,19.78520087,0.351865226,5.982178221,2
1.61696E+18,-69.04155371,17.57329522,-2.496519879,7.367185303,2
1.61696E+18,-69.03162061,15.88505105,-4.196533406,2.052067116,2
1.61696E+18,-69.0216875,10.85195283,-4.974034613,-6.558502776,2
1.61696E+18,-69.01175537,5.893610295,-4.311672528,-13.34571494,2
1.61696E+18,-69.00182251,11.87750117,-5.7363704,-14.24077694,2
1.61696E+18,-68.99188965,19.05135819,-7.25401602,-10.15546461,2
1.61696E+18,-68.98195654,18.04571984,-6.690009679,-5.544097769,2
1.61696E+18,-68.97202271,14.90253755,-6.89531481,-0.252226748,2
1.61696E+18,-68.96208984,-2.230956971,-7.766960866,3.657286828,2
1.61696E+18,-68.95215796,8.817353716,-10.48485789,4.169567073,2
1.61696E+18,-68.94222485,32.88664178,-19.20787328,9.783932557,2
1.61696E+18,-68.93229175,24.81335403,-24.17786885,15.75887147,2
1.61696E+18,-68.92235864,18.32247927,-25.88012285,12.99789168,2
1.61696E+18,-68.91242578,18.42882484,-28.30666961,5.71841681,2
1.61696E+18,-68.90249292,21.7392973,-27.05837635,-0.048565293,2
1.61696E+18,-68.89256079,19.84062056,-22.69112339,-2.800186015,2
1.61696E+18,-68.88262769,16.47418131,-19.56736126,-5.177264691,2
1.61696E+18,-68.87269482,13.59848558,-17.20399546,-7.185695932,2
1.61696E+18,-68.86276172,11.67296059,-13.80250009,-7.461918765,2
1.61696E+18,-68.85282886,10.4639776,-10.4579769,-6.589298896,2
1.61696E+18,-68.84289575,9.264864259,-8.991526042,-5.359994417,2
1.61696E+18,-68.83296387,7.181765607,-7.841271134,-2.88550926,2
1.61696E+18,-68.82303076,5.26255228,-5.417824674,-0.247208884,2
1.61696E+18,-68.81309766,6.203908416,-2.220569433,0.985882968,2
1.61696E+18,-68.80316479,11.87393091,1.753994708,0.283201148,2
1.61696E+18,-68.79323169,18.74691347,3.599193536,-1.724553802,2
1.61696E+18,-68.78329883,15.82783687,8.081018632,-3.346084452,2
1.61696E+18,-68.7733667,9.660139588,14.26980196,-5.557242497,2
1.61696E+18,-68.76343359,2.768624171,15.25509193,-5.488423228,2
1.61696E+18,-68.75350049,-5.127546428,13.89394269,-2.830568294,2
1.61696E+18,-68.74356787,-49.28997669,17.4674313,3.183837834,2
1.61696E+18,-68.73363477,-53.84621259,27.0538241,-0.994284302,2
1.61696E+18,-68.72370166,-34.15489529,28.94915035,-13.14984048,2
1.61696E+18,-68.71376978,-31.00629331,19.38547792,-16.74497627,2
1.61696E+18,-68.70383667,31.78995713,1.82895964,-15.06851371,2
1.61696E+18,-68.69390381,44.46790959,-0.94876086,-10.15142205,2
1.61696E+18,-68.6839707,14.56319454,6.931087549,-5.824966382,2
1.61696E+18,-68.6740376,-1.390647718,13.79632754,-5.512980746,2
1.61696E+18,-68.66410474,3.955495868,15.60283102,-2.455463646,2
1.61696E+18,-68.65417188,0.102362058,20.17075151,-0.780962453,2
1.61696E+18,-68.64423975,-2.734450683,24.86201665,8.556798407,2
1.61696E+18,-68.63430664,4.107597816,28.48078699,22.62060433,2
1.61696E+18,-68.62437378,-6.180915079,29.83337766,18.60502312,2
1.61696E+18,-68.61444067,-3.379736838,17.81130552,9.864531696,2
1.61696E+18,-68.60450781,4.805049335,12.97961953,4.597132268,2
1.61696E+18,-68.59457471,7.396919347,8.769273283,0.725076023,2
1.61696E+18,-68.58464282,9.025886576,4.823312137,-2.85857829,2
1.61696E+18,-68.57470972,9.767242703,3.008145459,-5.650231747,2
1.61696E+18,-68.56477661,8.62426217,1.478629953,-8.226322591,2
1.61696E+18,-68.55484351,6.667811876,0.314317878,-10.10131684,2
1.61696E+18,-68.54491089,4.357413704,-0.922056393,-10.65486608,2
1.61696E+18,-68.53497778,2.005417447,-2.823329575,-10.12475149,2
1.61696E+18,-68.52504565,-2.534917122,-4.776586626,-9.142792123,2
1.61696E+18,-68.51511255,-10.1068242,-6.454031763,-8.14211286,2
1.61696E+18,-68.50517969,-5.660743788,-7.732647677,-5.599156224,2
1.61696E+18,-68.49524683,-1.561630892,-9.013761839,-2.541353,2
1.61696E+18,-68.48531372,0.587061053,-9.821896669,-0.240019593,2
1.61696E+18,-68.47538062,1.642707586,-9.643726798,0.799221529,2
1.61696E+18,-68.46544897,1.018289666,-8.79452989,1.440866916,2
1.61696E+18,-68.45551587,0.055779755,-7.829111325,1.909685036,2
1.61696E+18,-68.44558276,-0.82170078,-6.834315274,1.897559714,2
1.61696E+18,-68.43564966,-1.670306371,-5.863504495,1.88135516,2
1.61696E+18,-68.42571655,-2.367951951,-4.95488626,1.711318911,2
1.61696E+18,-68.41578369,-3.128109809,-3.778363523,1.18874056,2
1.61696E+18,-68.40585181,-4.813488662,-2.678414323,0.304107888,2
1.61696E+18,-68.3959187,-5.065859495,-2.56471371,-0.110372638,2
1.61696E+18,-68.38598608,-1.668297954,-2.965916675,0.120187637,2
1.61696E+18,-68.37605298,1.566208868,-2.464403324,-0.152034436,2
1.61696E+18,-68.36611987,3.451747889,0.561809123,-1.590402375,2
1.61696E+18,-68.35618677,5.119185427,7.651899486,-3.936166313,2
1.61696E+18,-68.34625488,2.973352963,14.69897547,-4.859000705,2
1.61696E+18,-68.33632202,-3.500250346,15.36243002,-4.146690055,2
1.61696E+18,-68.32638892,-14.75406198,13.033378,0.125845225,2
1.61696E+18,-68.31645581,-16.91695898,8.809728628,6.389479503,2
1.61696E+18,-68.30652271,-7.140763735,3.833557587,9.027242667,2
1.61696E+18,-68.29658984,-1.180032791,-0.861722044,7.411894213,2
1.61696E+18,-68.28665771,1.731473956,-5.005223532,6.266240662,2
1.61696E+18,-68.27672485,2.929230912,-6.329087286,6.53175973,2
1.61696E+18,-68.26679199,3.603987784,-5.78629909,6.063319211,2
1.61696E+18,-68.25685889,3.729671681,-4.543888462,4.945817403,2
1.61696E+18,-68.24692578,2.819468223,-2.727958983,3.280191299,2
1.61696E+18,-68.23699292,0.560092382,-0.648852031,1.675124001,2
1.61696E+18,-68.22706104,-2.015542535,0.771724962,0.513577883,2
1.61696E+18,-68.21712793,-3.813187,1.869679189,-0.944275093,2
1.61696E+18,-68.20719482,-2.498930447,2.534904262,-2.145071417,2
1.61696E+18,-68.19726172,0.033192587,2.733033802,-2.937673162,2
1.61696E+18,-68.18732886,2.088797156,2.355657118,-3.273363791,2
1.61696E+18,-68.177396,2.911801639,1.959291655,-3.100101858,2
1.61696E+18,-68.16746387,1.908836895,1.29585931,-2.820693965,2
1.61696E+18,-68.15753076,-0.967308909,-0.612224136,-2.089730199,2
1.61696E+18,-68.14759766,-5.735915642,-2.44981658,-1.203443915,2
1.61696E+18,-68.13766479,-10.25272203,-2.950333906,-0.313523659,2
1.61696E+18,-68.12773193,-10.08381976,-2.740982131,0.97140027,2
1.61696E+18,-68.11779883,-7.737893177,-2.382597147,1.544468453,2
1.61696E+18,-68.1078667,-5.399580577,-1.580079572,1.330486972,2
1.61696E+18,-68.09793384,-3.591972937,-0.486443793,1.183873392,2
1.61696E+18,-68.08800073,-3.352113795,0.85901863,1.080306635,2
1.61696E+18,-68.07806787,-5.132267027,1.519117446,0.871341813,2
1.61696E+18,-68.06813477,-6.548565903,1.003995841,0.236029939,2
1.61696E+18,-68.05820288,-6.468395219,0.121937111,-0.671508099,2
1.61696E+18,-68.04826978,-5.152158891,-0.330008784,-1.344501615,2
1.61696E+18,-68.03833667,-3.619118718,-0.805461227,-1.398522543,2
1.61696E+18,-68.02840381,-2.094418503,-1.658052454,-1.367939335,2
1.61696E+18,-68.01847095,-1.039693177,-2.404009937,-1.771307954,2
1.61696E+18,-68.00853784,-0.602846505,-2.893430116,-1.697225358,2
1.61696E+18,-67.99860571,-0.212588273,-2.779512645,-1.292626612,2
1.61696E+18,-67.98867261,0.150901925,-2.344021625,-0.77563629,2
1.61696E+18,-67.97873975,0.201961081,-1.483981835,-0.67463646,2
1.61696E+18,-67.96880786,0.577726238,1.017183239,-1.232601767,2
1.61696E+18,-67.958875,-0.535054094,4.544183645,-2.837231259,2
1.61696E+18,-67.94894189,2.238059789,6.948663538,-4.637797164,2
1.61696E+18,-67.93901001,13.43012925,7.250628131,-7.177851648,2
1.61696E+18,-67.9290769,12.96321083,6.649772361,-7.429198399,2
1.61696E+18,-67.9191438,12.1000871,3.849214591,1.065152028,2
1.61696E+18,-67.90921118,15.95134284,-2.005734842,10.12077908,2
1.61696E+18,-67.89927808,13.3307278,-7.591027376,9.153456141,2
1.61696E+18,-67.88934497,19.26392191,-8.289966503,6.120890526,2
1.61696E+18,-67.87941284,14.74447933,-4.582836324,2.001287507,2
1.61696E+18,-67.86947998,11.97393325,6.762921771,-0.741173172,2
1.61696E+18,-67.85954688,-0.859440362,23.99152794,-2.807065545,2
1.61696E+18,-67.84961401,-29.47623011,61.871137,-11.94586685,2
1.61696E+18,-67.83968091,10.79644547,64.62300994,-12.30785307,2
1.61696E+18,-67.8297478,8.695461028,36.91135322,-4.151610853,2
1.61696E+18,-67.81981592,-8.103914354,19.53769911,2.017620802,2
1.61696E+18,-67.80988281,-9.002878626,13.66866913,0.01802344,2
1.61696E+18,-67.79994995,-5.776722284,10.53188969,-6.455415326,2
1.61696E+18,-67.79001685,-6.38835313,8.135048328,-11.31016422,2
1.61696E+18,-67.78008398,-14.53893805,3.871531637,-14.40166776,2
1.61696E+18,-67.77015186,-25.20248896,0.215405669,-19.87608935,2
1.61696E+18,-67.76021875,-22.83509113,-2.259565226,-29.0347945,2
1.61696E+18,-67.75028613,-8.297327972,-7.774597644,-26.14381704,2
1.61696E+18,-67.74035303,-12.13921733,-7.313291216,-12.22332653,2
1.61696E+18,-67.73041992,-17.14439761,-4.991394913,-3.126783237,2
1.61696E+18,-67.72048682,-10.06476201,-2.826809818,5.343456539,2
1.61696E+18,-67.71055493,4.314059715,0.071907883,13.58138014,2
1.61696E+18,-67.70062183,10.44056399,3.32083369,18.95232499,2
1.61696E+18,-67.69068896,14.55422914,2.383509586,21.20202114,2
1.61696E+18,-67.68075586,18.73472619,-1.506352657,17.95872311,2
1.61696E+18,-67.67082275,17.62875934,-2.713674437,11.67918809,2
1.61696E+18,-67.66088989,11.96565642,-4.060506394,5.655709886,2
1.61696E+18,-67.65095776,6.261782513,-6.06537439,-0.589993015,2
1.61696E+18,-67.6410249,4.65354886,-6.532502657,-5.225879376,2
1.61696E+18,-67.6310918,5.256225999,-5.91262713,-6.057943948,2
1.61696E+18,-67.62115894,6.459026502,-5.808894369,-3.145864077,2
1.61696E+18,-67.61122583,12.59824471,-7.066000462,2.023974848,2
1.61696E+18,-67.6012937,16.50312917,-7.179097849,9.019211336,2
1.61696E+18,-67.59136084,17.93044979,-8.268046348,12.36472822,2
1.61696E+18,-67.58142798,12.92124566,-10.26567504,10.58182423,2
1.61696E+18,-67.57149487,16.85185493,-13.29952251,8.124670142,2
1.61696E+18,-67.56156177,19.51283238,-15.52261942,6.460691221,2
1.61696E+18,-67.55162866,16.85706886,-16.05199751,5.991937398,2
1.61696E+18,-67.54169678,15.68470149,-14.81191445,5.444089581,2
1.61696E+18,-67.53176392,13.99016903,-13.72844117,4.076898142,2
1.61696E+18,-67.52183081,10.68734913,-13.69143625,3.331014016,2
1.61696E+18,-67.51189771,8.603623287,-14.21148421,3.035824032,2
1.61696E+18,-67.50196484,6.95872316,-14.7090421,2.773318758,2
1.61696E+18,-67.49203198,3.255869928,-15.41118733,2.807770771,2
1.61696E+18,-67.48209985,-0.634350627,-15.00689692,3.097844727,2
1.61696E+18,-67.47216675,0.759376352,-13.27216689,3.052946139,2
1.61696E+18,-67.46223389,5.928821894,-10.48998648,3.170151546,2
1.61696E+18,-67.45230078,6.627618397,-6.145583069,4.087262299,2
1.61696E+18,-67.44236792,5.939799215,-2.980745996,4.966300219,2
1.61696E+18,-67.43243481,5.279003064,-1.239662791,5.088579861,2
1.61696E+18,-67.42250317,3.420366078,0.320247853,3.765732298,2
1.61696E+18,-67.41256982,1.471213393,0.802801068,2.457679568,2
1.61696E+18,-67.40263672,-1.449164058,1.755962793,2.386760989,2
1.61696E+18,-67.39270361,-4.594386477,3.194204037,3.226970289,2
1.61696E+18,-67.382771,-5.331129557,2.344025717,4.195108926,2
1.61696E+18,-67.37283911,-3.507650978,-0.281132233,3.802909936,2
1.61696E+18,-67.36290601,-1.663843897,-2.185620869,1.840019087,2
1.61696E+18,-67.3529729,-7.044048743,-0.55951955,-1.123636073,2
1.61696E+18,-67.34304004,-18.91140845,10.21625255,-14.76093011,2
1.61696E+18,-67.33310718,1.373806474,19.76112792,-19.36387866,2
1.61696E+18,-67.32317383,12.01897417,34.7841144,-24.79019761,2
1.61696E+18,-67.31324194,-25.87083596,39.93938937,-31.82631907,2
1.61696E+18,-67.30330908,-50.80304667,33.38320481,-16.01899424,2
1.61696E+18,-67.29337598,-11.16006134,36.21345045,0.42937429,2
1.61696E+18,-67.28344287,30.27054392,22.55527817,0.39957741,2
1.61696E+18,-67.27351001,22.87775188,10.54271971,0.970339947,2
1.61696E+18,-67.26357813,4.764667348,10.1497737,0.969659125,2
1.61696E+18,-67.25364502,-8.867308126,11.09465334,-1.187651741,2
1.61696E+18,-67.24371191,0.436718808,6.647758684,-0.253228619,2
1.61696E+18,-67.23377881,8.127345499,4.671754963,0.832402426,2
1.61696E+18,-67.22384619,8.773730847,3.496800498,2.27132756,2
1.61696E+18,-67.21391309,7.909916215,3.227477361,1.958712686,2
1.61696E+18,-67.20398096,4.551003554,4.487040201,0.937245487,2
1.61696E+18,-67.19404785,2.281780565,6.941976023,0.921062998,2
1.61696E+18,-67.18411499,1.667023258,7.46537329,1.233773441,2
1.61696E+18,-67.17418213,-2.864910124,6.327313262,0.476811457,2
1.61696E+18,-67.16424902,-7.027753441,4.305564859,-2.167384663,2
1.61696E+18,-67.15431689,-3.766645029,0.643756169,-4.467194806,2
1.61696E+18,-67.14438403,-2.054205735,-3.072753833,-5.055765971,2
1.61696E+18,-67.13445093,-1.307707569,-5.874162083,-3.938657546,2
1.61696E+18,-67.12451782,-1.283262864,-7.80755708,-2.096336319,2
1.61696E+18,-67.11458496,-1.708278667,-8.997961628,-0.241575883,2
1.61696E+18,-67.10465186,-1.660800876,-10.09791609,0.994560196,2
1.61696E+18,-67.09471997,-1.424163034,-10.74821189,1.846363341,2
1.61696E+18,-67.08478687,-1.088978309,-10.38525887,2.621551449,2
1.61696E+18,-67.07485376,-0.90726682,-9.602090719,3.149588651,2
1.61696E+18,-67.06492114,-0.888959521,-8.678995047,3.398782607,2
1.61696E+18,-67.05498804,-0.428891841,-7.434640882,3.539546,2
1.61696E+18,-67.04505591,0.129036714,-6.096634037,3.180940651,2
1.61696E+18,-67.0351228,-0.012256328,-4.98459517,2.605841254,2
1.61696E+18,-67.02518994,-0.347189782,-3.521507654,1.841324178,2
1.61696E+18,-67.01525708,-0.803070021,-2.076810366,1.104817829,2
1.61696E+18,-67.00532397,-1.361220548,-0.709255354,0.427081795,2
1.61696E+18,-66.99539087,-2.154540817,0.774471046,-0.237121095,2
1.61696E+18,-66.98545898,-2.932097408,2.116444457,-0.887181771,2
1.61696E+18,-66.97552588,-2.864595651,3.288642316,-1.756901243,2
1.61696E+18,-66.96559253,-3.008597295,4.623825922,-2.490719668,2
1.61696E+18,-66.95565942,-2.122719592,6.589405863,-2.617086286,2
1.61696E+18,-66.94572632,0.788461504,10.02909565,-3.279253726,2
1.61696E+18,-66.93579346,3.296429902,12.18443829,-4.449299376,2
1.61696E+18,-66.92586133,2.475626728,7.920607705,-2.999930004,2
1.61696E+18,-66.91592847,1.08912897,2.262726321,-1.545788449,2
1.61696E+18,-66.90599536,0.963446242,-0.5850351,-1.50425057,2
1.61696E+18,-66.8960625,-0.038828693,-2.002218358,-1.778333469,2
1.61696E+18,-66.88612939,-1.309732207,-2.603559865,-1.932751,2
1.61696E+18,-66.87619727,-2.160868851,-2.241978716,-1.70908896,2
1.61696E+18,-66.86626416,-1.999843446,-2.027472627,-1.353309629,2
1.61696E+18,-66.85633154,-1.112746138,-1.539901291,-1.112987838,2
1.61696E+18,-66.84639844,-0.535702695,-0.868459827,-0.920513986,2
1.61696E+18,-66.83646533,-0.821698661,-1.002642088,-0.290354527,2
1.61696E+18,-66.82653223,-0.999368765,-1.540077232,0.653227762,2
1.61696E+18,-66.81660034,-0.807680657,-1.882147041,1.619380778,2
1.61696E+18,-66.80666748,-0.330403409,-1.932286159,2.553324301,2
1.61696E+18,-66.79673438,0.703489557,-1.557631594,3.257692759,2
1.61696E+18,-66.78680127,1.627699402,-0.95754447,3.496781794,2
1.61696E+18,-66.77686841,2.309525481,-0.329592604,3.111168027,2
1.61696E+18,-66.76693628,3.14375746,0.79497432,2.079196384,2
1.61696E+18,-66.75700342,3.825060977,2.069285231,0.886001914,2
1.61696E+18,-66.74707031,4.147498449,2.891911528,-0.377066011,2
1.61696E+18,-66.73713745,3.685084351,3.003939824,-1.420658826,2
1.61696E+18,-66.72720435,2.730265506,2.276815052,-1.910033996,2
1.61696E+18,-66.71727124,1.290030458,0.964440075,-1.693694845,2
1.61696E+18,-66.70733911,0.263251123,-0.1802005,-1.240115211,2
1.61696E+18,-66.69740649,-0.057346292,-1.065280623,-0.983681659,2
1.61696E+18,-66.68747339,-0.170659934,-1.793849749,-0.829674462,2
1.61696E+18,-66.67754028,-0.421101844,-2.296287814,-0.511669419,2
1.61696E+18,-66.66760718,-1.218946751,-2.517996967,0.432366604,2
1.61696E+18,-66.65767529,-2.164541841,-2.571439219,1.315926385,2
1.61696E+18,-66.64774243,-3.512055351,-2.672676656,2.005045691,2
1.61696E+18,-66.63780933,-4.498891382,-2.277981173,2.444468789,2
1.61696E+18,-66.62787622,-4.222792467,-1.36857208,2.372993452,2
1.61696E+18,-66.61794312,-3.55699164,-0.563441692,1.888630265,2
1.61696E+18,-66.60801147,-2.932612372,-0.10587445,1.216174364,2
1.61696E+18,-66.59807837,-2.3872213,0.036455461,0.649753364,2
1.61696E+18,-66.58814551,-2.126845439,-0.049828738,0.495114152,2
1.61696E+18,-66.5782124,-2.26414554,0.232575415,0.72481445,2
1.61696E+18,-66.5682793,-2.495640758,1.094565754,0.68207041,2
1.61696E+18,-66.55834619,-2.959953383,2.263896533,0.039317573,2
1.61696E+18,-66.54841431,-4.052913455,3.089752314,-1.093872511,2
1.61696E+18,-66.53848169,-6.644833152,3.327610637,-2.254483977,2
1.61696E+18,-66.52854858,-10.94146535,3.750867614,-2.80470057,2
1.61696E+18,-66.51861548,-15.150293,3.631495384,-2.583013044,2
1.61696E+18,-66.50868237,-15.24738443,0.800312174,-0.864936914,2
1.61696E+18,-66.49875049,-11.11303421,-3.552953178,2.163742799,2
1.61696E+18,-66.48881763,-5.162357044,-8.639341666,4.003287254,2
1.61696E+18,-66.47888452,0.873394653,-12.0657289,3.531850477,2
1.61696E+18,-66.46895142,2.604470258,-13.70658239,0.865750276,2
1.61696E+18,-66.45901831,-6.440346352,-11.83691898,-4.895407066,2
1.61696E+18,-66.44908643,-7.994619867,-8.166383378,-10.24553943,2
1.61696E+18,-66.43915332,14.0763182,-4.527726431,-4.956820443,2
1.61696E+18,-66.42922046,25.43130356,-3.382424177,10.40087261,2
1.61696E+18,-66.4192876,21.3836017,-3.754487558,20.55971108,2
1.61696E+18,-66.40935449,9.079472036,-7.305784785,20.5071462,2
1.61696E+18,-66.39942139,9.579377368,-8.095957843,15.06131357,2
1.61696E+18,-66.38948926,8.200472694,-1.417848444,8.657074891,2
1.61696E+18,-66.37955664,-2.772859032,10.88881395,-1.382789406,2
1.61696E+18,-66.36962354,-1.632389021,33.39924877,-18.26971798,2
1.61696E+18,-66.35969043,2.337576102,57.06069019,-34.56592173,2
1.61696E+18,-66.34975732,-3.358973159,46.76230296,-19.17214029,2
1.61696E+18,-66.33982544,-4.522902957,31.9655288,-4.306416799,2
1.61696E+18,-66.32989258,-4.633990757,23.8546072,-2.033862328,2
1.61696E+18,-66.31995947,0.536383589,20.97752265,-5.180512294,2
1.61696E+18,-66.31002637,1.98173262,19.71021373,-8.8916558,2
1.61696E+18,-66.30009326,-1.179331365,17.10309179,-8.955946194,2
1.61696E+18,-66.29016138,-3.988150768,14.63261236,-7.231584992,2
1.61696E+18,-66.28022827,-6.818841811,12.56296765,-4.884930096,2
1.61696E+18,-66.27029541,-10.78921025,10.43720883,-1.355452778,2
1.61696E+18,-66.26036255,-13.77858613,7.668175498,1.246018006,2
1.61696E+18,-66.25042944,-14.11699625,3.942110901,1.433578805,2
1.61696E+18,-66.24049634,-14.0015672,1.271630878,-1.126979246,2
1.61696E+18,-66.23056421,-10.73385369,-0.174046069,-5.016949041,2
1.61696E+18,-66.22063159,-9.954837989,-1.171966389,-8.981599691,2
1.61696E+18,-66.21069849,-18.6230603,0.003411854,-9.820686709,2
1.61696E+18,-66.20076538,-16.51303915,1.263098028,-7.372919463,2
1.61696E+18,-66.19083228,-0.135134447,0.380404508,-5.1714826,2
1.61696E+18,-66.18090039,13.97529177,-1.073408984,-2.146075333,2
1.61696E+18,-66.17096753,16.33447707,-3.74313322,0.765018742,2
1.61696E+18,-66.16103442,15.59789531,-7.046756833,1.24000649,2
1.61696E+18,-66.15110132,16.46135456,-7.979182644,1.758903231,2
1.61696E+18,-66.14116821,19.12211924,-8.109426396,2.890093372,2
1.61696E+18,-66.13123633,19.5694141,-8.295416585,4.305929308,2
1.61696E+18,-66.12130322,13.94541218,-6.170878253,2.408091946,2
1.61696E+18,-66.11137036,5.399377748,-4.945310623,-1.417683171,2
1.61696E+18,-66.10143726,-2.318978954,-4.424522662,-0.456188794,2
1.61696E+18,-66.09150439,4.200380145,-4.702246547,2.847484357,2
1.61696E+18,-66.08157129,19.85654294,-8.186651674,7.007430784,2
1.61696E+18,-66.07163916,30.2401254,-12.68856036,13.49886435,2
1.61696E+18,-66.06170654,25.64518246,-14.12135444,18.22136633,2
1.61696E+18,-66.05177344,18.02608575,-15.48847749,15.86320396,2
1.61696E+18,-66.04184033,9.623761284,-17.64354891,8.595423614,2
1.61696E+18,-66.03190723,5.852251864,-19.77165399,0.739563691,2
1.61696E+18,-66.02197534,9.502379468,-19.5013699,-4.821559155,2
1.61696E+18,-66.01204248,11.04249177,-17.87306844,-6.943908453,2
1.61696E+18,-66.00210938,9.695463415,-17.16405976,-6.909384836,2
1.61696E+18,-65.99217627,7.507347222,-16.64871954,-6.338348451,2
1.61696E+18,-65.98224316,6.375950744,-16.23946537,-5.284347932,2
1.61696E+18,-65.97231128,6.169337454,-16.48841324,-4.191310411,2
1.61696E+18,-65.96237793,5.591068195,-16.70879203,-2.870953495,2
1.61696E+18,-65.95244482,4.681775129,-14.16708042,-1.68197372,2
1.61696E+18,-65.94251172,4.20605176,-9.918239905,-0.629293271,2
1.61696E+18,-65.93257886,3.814068459,-6.418688647,0.258521757,2
1.61696E+18,-65.92264673,4.227498453,-4.09745753,0.359797481,2
1.61696E+18,-65.91271387,6.942354793,-3.466532786,0.329917306,2
1.61696E+18,-65.90278076,9.355175814,-3.020918431,0.478038806,2
1.61696E+18,-65.8928479,8.608751882,-2.017163999,0.26316929,2
1.61696E+18,-65.88291479,5.501100924,0.127311206,-0.806645761,2
1.61696E+18,-65.87298267,-3.450425701,3.479117542,-1.215262802,2
1.61696E+18,-65.86304956,-16.67168774,5.54766686,0.725886755,2
1.61696E+18,-65.85311694,-20.49347306,6.310134748,0.278513282,2
1.61696E+18,-65.84318384,-18.13665859,4.059353717,-1.863212185,2
1.61696E+18,-65.83325073,-13.59333712,0.599372837,-2.825589921,2
1.61696E+18,-65.82331763,-13.21691905,-0.615631314,-2.989519377,2
1.61696E+18,-65.81338574,-2.19880476,-2.799256625,-3.196311823,2
1.61696E+18,-65.80345288,21.74940485,-5.179136914,-3.016088527,2
1.61696E+18,-65.79351978,22.31146473,-0.019501404,-1.950304777,2
1.61696E+18,-65.78358667,12.58658935,8.631811855,-6.654239278,2
1.61696E+18,-65.77365381,-14.4629806,29.08876925,-17.25543923,2
1.61696E+18,-65.76372168,-28.2407636,44.12375713,-14.56878374,2
1.61696E+18,-65.75378882,-24.94893038,44.26193342,16.39380721,2
1.61696E+18,-65.74385571,-51.2741947,59.56604453,23.85121697,2
1.61696E+18,-65.73392285,21.00587898,14.13357446,-2.183519805,2
1.61696E+18,-65.72398975,29.25969514,2.099616072,-3.639407473,2
1.61696E+18,-65.71405762,11.64135198,2.149489233,-2.062048412,2
1.61696E+18,-65.70412451,5.995704057,1.934420833,-5.885208377,2
1.61696E+18,-65.69419189,4.057046609,1.619067182,-8.544854287,2
1.61696E+18,-65.68425879,5.586506586,3.097385001,-9.235202111,2
1.61696E+18,-65.67432568,6.683992611,5.664888049,-7.984136467,2
1.61696E+18,-65.66439355,5.203427891,7.672782699,-6.496542286,2
1.61696E+18,-65.65446069,1.30198773,9.8630587,-5.585984023,2
1.61696E+18,-65.64452783,-3.50495341,12.36261108,-3.527570315,2
1.61696E+18,-65.63459473,-10.44704984,12.13215514,0.651832508,2
1.61696E+18,-65.62466162,-7.846082918,9.694943191,0.207103704,2
1.61696E+18,-65.61472974,0.168211664,4.073793746,-2.273377771,2
1.61696E+18,-65.60479663,5.114854704,-0.772250447,-2.181580946,2
1.61696E+18,-65.59486377,6.193581084,-3.723404437,-0.93359807,2
1.61696E+18,-65.58493066,4.315148679,-5.941560964,0.348666723,2
1.61696E+18,-65.5749978,2.044697902,-7.491736396,0.920622853,2
1.61696E+18,-65.56506592,0.394630748,-8.476392161,1.138307719,2
1.61696E+18,-65.55513281,-0.561163372,-8.906523115,1.533792891,2
1.61696E+18,-65.54519946,-1.379767428,-8.569508251,2.372063478,2
1.61696E+18,-65.53526685,-1.926162124,-7.523721434,3.555891277,2
1.61696E+18,-65.52533374,-2.167423534,-5.945494212,4.217158553,2
1.61696E+18,-65.51540186,-3.153302118,-4.180542056,4.282492903,2
1.61696E+18,-65.50546875,-5.484738402,-2.386888707,2.955686958,2
1.61696E+18,-65.49553589,-6.834165637,-1.238752106,1.189513444,2
1.61696E+18,-65.48560303,-5.130573082,-0.755408618,-0.328944808,2
1.61696E+18,-65.47566992,-2.500346159,-0.500888498,-1.709481613,2
1.61696E+18,-65.46573804,-0.792949974,-0.093186233,-2.782904041,2
1.61696E+18,-65.45580493,-0.912725597,0.490702619,-3.7555736,2
1.61696E+18,-65.44587183,-1.736079551,0.882834974,-4.347976598,2
1.61696E+18,-65.43593872,-1.523607743,0.907921485,-3.930475993,2
1.61696E+18,-65.42600586,0.18943653,0.418110846,-2.904858103,2
1.61696E+18,-65.416073,1.976102505,-0.31655309,-1.968424518,2
1.61696E+18,-65.40614087,2.972417728,-0.748774294,-1.60683387,2
1.61696E+18,-65.39620776,2.729145562,-0.744198657,-1.654729886,2
1.61696E+18,-65.38627466,1.615510367,-0.586820814,-1.538682417,2
1.61696E+18,-65.37634204,0.614823651,-0.042414077,-1.111280596,2
1.61696E+18,-65.36640894,0.283766673,0.430868621,-0.268395208,2
1.61696E+18,-65.35647681,0.81419793,0.878516526,0.813019241,2
1.61696E+18,-65.3465437,1.07705114,1.630700337,1.656492365,2
1.61696E+18,-65.33661084,0.066676485,2.006076203,2.984403349,2
1.61696E+18,-65.32667798,-1.615459513,1.671436836,3.497585219,2
1.61696E+18,-65.31674487,-2.20945358,0.965877999,3.538663956,2
1.61696E+18,-65.30681274,-1.499806012,0.431789243,3.848843419,2
1.61696E+18,-65.29687988,-1.08182135,-0.056499886,3.688819446,2
1.61696E+18,-65.28694678,-1.36848031,-0.313989377,2.991367927,2
1.61696E+18,-65.27701367,-2.085072583,-0.495343723,1.924010791,2
1.61696E+18,-65.26708081,-2.864308066,-0.6383207,0.623673166,2
1.61696E+18,-65.25714893,-3.349799088,-0.818511263,-0.610083178,2
1.61696E+18,-65.24721582,-3.942407254,-1.190385258,-1.379080468,2
1.61696E+18,-65.23728271,-4.642831651,-1.608538189,-1.639152377,2
1.61696E+18,-65.22734961,-5.214693965,-2.154280559,-1.54117891,2
1.61696E+18,-65.21741699,-5.132036725,-2.753361135,-1.126858542,2
1.61696E+18,-65.20748486,-4.372552236,-3.133328421,-0.438479388,2
1.61696E+18,-65.19755176,-3.782352885,-3.329775706,0.416043684,2
1.61696E+18,-65.18761865,-3.059933514,-3.032285629,1.549196358,2
1.61696E+18,-65.17768579,-2.513417238,-2.2803631,2.562970081,2
1.61696E+18,-65.16775293,-3.023154228,-1.473031987,3.456841997,2
1.61696E+18,-65.15782056,-3.558303891,-0.539499091,4.62544417,2
1.61696E+18,-65.1478877,-3.067176909,0.171733116,5.320074494,2
1.61696E+18,-65.13795483,-2.29500172,0.311336817,4.924216397,2
1.61696E+18,-65.12802173,-3.156849289,-0.124570383,3.450550788,2
1.61696E+18,-65.11808862,-5.586092744,-0.759784933,1.273359602,2
1.61696E+18,-65.10815649,-6.178722537,-1.251688745,-0.91017467,2
1.61696E+18,-65.09822388,-2.994249036,-1.719105181,-2.987062047,2
1.61696E+18,-65.08829077,1.4623215,-2.555687523,-4.297626467,2
1.61696E+18,-65.07835767,2.863464893,-2.548417824,-4.225764177,2
1.61696E+18,-65.06842456,0.949465209,-2.205221642,-3.579230067,2
1.61696E+18,-65.05849268,-0.998187739,-1.050621983,-2.021166366,2
1.61696E+18,-65.04855981,4.290826431,0.444474537,-0.728261229,2
1.61696E+18,-65.03862671,10.75945108,-0.496782231,1.593992216,2
1.61696E+18,-65.0286936,9.235108003,-0.874952112,3.947489087,2
1.61696E+18,-65.01876074,10.57850414,-0.18826281,5.760199019,2
1.61696E+18,-65.00882861,10.91438795,-0.637450347,5.724086088,2
1.61696E+18,-64.99889551,13.437956,-0.990471173,2.638593769,2
1.61696E+18,-64.98896265,16.07830333,3.273850406,-4.145166207,2
1.61696E+18,-64.97902979,7.973549606,12.40523909,-10.77413193,2
1.61696E+18,-64.96909595,-8.408613925,24.23886254,-15.84561686,2
1.61696E+18,-64.95916406,-49.00523971,49.43409641,-16.15741019,2
1.61696E+18,-64.9492312,-5.908383501,46.9976455,-8.655227218,2
1.61696E+18,-64.93929834,25.54270408,21.92538569,0.248643483,2
1.61696E+18,-64.92936523,-2.992345832,16.17203493,8.272776299,2
1.61696E+18,-64.91943188,-9.837342075,13.95680218,10.83194114,2
1.61696E+18,-64.9095,-7.947240276,14.04159059,7.817585722,2
1.61696E+18,-64.89956714,-5.607485661,13.71814891,3.722755618,2
1.61696E+18,-64.88963428,-8.779822734,13.50931092,-0.880321092,2
1.61696E+18,-64.87970117,-13.11255617,12.78159169,-3.622759413,2
1.61696E+18,-64.86976807,-16.69655798,10.2915904,-5.160556133,2
1.61696E+18,-64.85983618,-21.00368585,7.967161367,-10.28631918,2
1.61696E+18,-64.84990308,-22.76672078,5.02861376,-18.08435908,2
1.61696E+18,-64.83997021,-20.95875716,4.649181897,-20.42937205,2
1.61696E+18,-64.83003711,-22.61890688,6.1493772,-14.03491301,2
1.61696E+18,-64.82010425,-7.329335172,4.356992263,-7.366417241,2
1.61696E+18,-64.81017212,19.11890086,-1.838721156,-2.262726613,2
1.61696E+18,-64.80023901,26.05191851,-4.646185637,-0.354533569,2
1.61696E+18,-64.79030615,20.66066269,-6.336542863,-2.925176084,2
1.61696E+18,-64.78037329,15.98112774,-7.139573063,-6.859173821,2
1.61696E+18,-64.77044019,15.73734704,-5.002919931,-8.945567423,2
1.61696E+18,-64.76050806,21.97602866,-2.490914898,-6.278383519,2
1.61696E+18,-64.75057495,25.10476859,-1.298216103,-0.551586419,2
1.61696E+18,-64.74064209,13.32434716,0.680301647,3.319221287,2
1.61696E+18,-64.73070923,-9.994578464,4.251121905,1.641019194,2
1.61696E+18,-64.7207771,-7.343023506,3.686293143,-2.823386273,2
1.61696E+18,-64.71084399,21.91497418,-0.09851415,-0.534764172,2
1.61696E+18,-64.70091113,36.79722415,-6.713232734,9.538129996,2
1.61696E+18,-64.69097803,24.88934655,-11.79608311,17.00724072,2
1.61696E+18,-64.68104517,28.1224096,-18.53141077,12.92872988,2
1.61696E+18,-64.67111304,34.35559906,-24.80424718,6.536044275,2
1.61696E+18,-64.66118018,29.39520602,-24.24045711,0.899908859,2
1.61696E+18,-64.65124707,23.24151154,-23.69267359,-4.132003066,2
1.61696E+18,-64.64131396,17.68198824,-23.12531794,-8.283891567,2
1.61696E+18,-64.6313811,14.88380129,-21.06594912,-11.78626197,2
1.61696E+18,-64.62144922,13.48998546,-19.44275756,-13.87519825,2
1.61696E+18,-64.61151611,11.28229422,-18.9152663,-13.45330438,2
1.61696E+18,-64.60158301,7.995091576,-17.32483134,-9.553903904,2
1.61696E+18,-64.5916499,6.242900118,-14.35488029,-4.046118096,2
1.61696E+18,-64.58171704,5.629515707,-11.67008357,-0.518260927,2
1.61696E+18,-64.57178491,3.233271142,-9.532921906,2.12191149,2
1.61696E+18,-64.56185205,1.1627099,-6.891516587,4.988184134,2
1.61696E+18,-64.55191895,5.254545499,-3.027064679,5.748634253,2
1.61696E+18,-64.54198608,11.34415183,-0.555995468,3.808637081,2
1.61696E+18,-64.53205298,11.63988133,-0.692245182,2.15874806,2
1.61696E+18,-64.52212085,8.450414839,-0.408476171,0.016882234,2
1.61696E+18,-64.51218799,3.83692268,4.961002697,-2.662389948,2
1.61696E+18,-64.50225513,-2.584901927,12.69032328,-4.587008934,2
1.61696E+18,-64.49232202,-15.90149131,17.35521011,-6.844430426,2
1.61696E+18,-64.48238892,-25.62969964,18.08820991,-10.46990933,2
1.61696E+18,-64.47245679,-24.55405778,10.75123036,-12.96333708,2
1.61696E+18,-64.46252393,-7.993331581,-1.001591117,-17.00169127,2
1.61696E+18,-64.45259106,10.47281791,-11.74722059,-22.52325572,2
1.61696E+18,-64.44265796,18.49077949,-12.25349019,-15.06648425,2
1.61696E+18,-64.43272485,16.34867861,-3.926945481,-0.088416535,2
1.61696E+18,-64.42279321,1.387765148,1.406360836,4.363332572,2
1.61696E+18,-64.41286011,5.649342105,10.21247186,5.786248237,2
1.61696E+18,-64.40292725,-15.31384106,40.11702791,5.833862806,2
1.61696E+18,-64.3929939,-21.15754137,69.89779159,5.366928015,2
1.61696E+18,-64.38306104,-6.124333944,57.36256535,7.695278609,2
1.61696E+18,-64.37312915,0.585481675,24.41940732,5.787019221,2
1.61696E+18,-64.36319604,-7.320870126,10.65214221,-0.338383521,2
1.61696E+18,-64.35326318,-4.72146475,5.056901697,-6.499055146,2
1.61696E+18,-64.34333032,3.228235486,3.795255037,-9.075071755,2
1.61696E+18,-64.33339722,1.473326001,3.285793357,-10.2230517,2
1.61696E+18,-64.32346509,-0.070037997,3.294787395,-9.842720846,2
1.61696E+18,-64.31353198,1.199265899,4.439481162,-6.710580174,2
1.61696E+18,-64.30359912,2.266634434,5.644295343,-3.185604844,2
1.61696E+18,-64.29366626,3.194063752,5.493723673,-0.659537675,2
1.61696E+18,-64.28373413,4.032371018,4.916761989,0.992863037,2
1.61696E+18,-64.27380127,4.252161477,4.564255542,2.852650946,2
1.61696E+18,-64.26386816,3.956992536,3.887211436,4.568983155,2
1.61696E+18,-64.25393506,3.354887059,2.711328751,4.905922615,2
1.61696E+18,-64.2440022,2.31877291,1.123648056,4.53361432,2
1.61696E+18,-64.23407031,0.963876596,-0.39571489,4.504166692,2
1.61696E+18,-64.22413721,-0.011108254,-1.999052588,4.604813178,2
1.61696E+18,-64.2142041,-0.304295082,-3.777360484,4.349908443,2
1.61696E+18,-64.204271,-0.92380879,-5.371586655,3.901719562,2
1.61696E+18,-64.19433813,-1.722663166,-6.713229811,3.4789983,2
1.61696E+18,-64.18440601,-1.804697744,-7.384248666,2.807429995,2
1.61696E+18,-64.17447314,-0.825178904,-7.71681824,1.805915742,2
1.61696E+18,-64.16454004,0.666256755,-7.506953839,0.880336728,2
1.61696E+18,-64.15460693,2.579565826,-6.671670305,-0.570262186,2
1.61696E+18,-64.14467407,3.836839093,-5.772988942,-2.192228012,2
1.61696E+18,-64.13474194,3.826936123,-5.419637277,-3.636261284,2
1.61696E+18,-64.12480908,3.410921373,-5.271223662,-4.57312157,2
1.61696E+18,-64.11487598,2.871667197,-5.315948354,-5.095592954,2
1.61696E+18,-64.10494312,2.247299619,-4.783698504,-5.70778611,2
1.61696E+18,-64.09501099,0.16768289,-2.324549447,-7.064280214,2
1.61696E+18,-64.08507788,-13.29596862,3.535684063,-12.22078386,2
1.61696E+18,-64.07514526,-17.58062396,8.552148536,-13.00161625,2
1.61696E+18,-64.06521216,-13.77969205,10.94712936,-7.625799414,2
1.61696E+18,-64.05527905,-9.99328667,8.899435787,-0.84052991,2
1.61696E+18,-64.04534692,0.045999516,4.659036936,3.803120364,2
1.61696E+18,-64.03541406,4.254633128,0.290022226,6.658296444,2
1.61696E+18,-64.02548096,2.700680515,-2.552605339,8.004909206,2
1.61696E+18,-64.0155481,1.04024555,-3.113610744,9.452610352,2
1.61696E+18,-64.00561499,0.141312843,-2.74130128,10.35091704,2
1.61696E+18,-63.99568311,0.391198252,-2.611335176,11.05937393,2
1.61696E+18,-63.98575,0.258328244,-1.386468971,10.78431897,2
1.61696E+18,-63.97581689,-1.000420905,0.402754287,8.175019104,2
1.61696E+18,-63.96588574,-2.632893512,1.359049634,4.552138696,2
1.61696E+18,-63.95595264,-3.419111694,1.809995412,2.193020624,2
1.61696E+18,-63.94602075,-2.715963425,2.210062067,0.490538953,2
1.61696E+18,-63.93608789,-1.449101222,1.821830812,-0.944894978,2
1.61696E+18,-63.92615503,-1.002095048,0.906070888,-2.440837885,2
1.61696E+18,-63.91622192,-1.81182745,0.152100779,-3.803839618,2
1.61696E+18,-63.90628882,-3.111042939,-0.598919833,-4.928237907,2
1.61696E+18,-63.89635669,-3.782150056,-0.805239693,-5.150661346,2
1.61696E+18,-63.88642383,-3.465735498,-0.468875403,-4.283124479,2
1.61696E+18,-63.87649097,-2.400128712,-0.124275783,-2.863055436,2
1.61696E+18,-63.86655786,-1.166822596,0.106143914,-1.376273594,2
1.61696E+18,-63.85662598,0.324046076,0.412543859,-0.146488784,2
1.61696E+18,-63.84669287,1.132858367,0.973645126,0.415800815,2
1.61696E+18,-63.83675977,1.036359649,1.63410693,0.838853794,2
1.61696E+18,-63.8268269,0.622147564,2.216332818,0.865408915,2
1.61696E+18,-63.8168938,-0.20392975,2.030826613,0.762678316,2
1.61696E+18,-63.80696191,-0.92982352,1.383562728,0.682659169,2
1.61696E+18,-63.79702881,-1.699935786,0.419745169,0.415224331,2
1.61696E+18,-63.7870957,-2.420470658,-0.608899375,-0.180981859,2
1.61696E+18,-63.77716284,-3.141883483,-1.871941873,-0.557384876,2
1.61696E+18,-63.76722998,-4.579896179,-3.201221223,-0.114637164,2
1.61696E+18,-63.75729785,-5.214503411,-3.97205888,0.626135026,2
1.61696E+18,-63.74736475,-2.938420766,-4.381058199,0.676413115,2
1.61696E+18,-63.73743164,-0.964127941,-5.052348856,0.977679788,2
1.61696E+18,-63.72749878,-0.019753333,-5.109089565,1.874846947,2
1.61696E+18,-63.71756592,0.447729739,-4.500882848,2.050176041,2
1.61696E+18,-63.70763379,0.507120378,-3.521771273,1.73236959,2
1.61696E+18,-63.69770068,-0.302820041,-2.368368131,1.571239117,2
1.61696E+18,-63.68776782,-1.940005063,-1.193449906,1.53920381,2
1.61696E+18,-63.67783472,-5.028237328,0.056564183,1.602664621,2
1.61696E+18,-63.66790259,-10.20475968,1.671136977,1.690627128,2
1.61696E+18,-63.65796997,-11.2039788,2.350554242,1.006877387,2
1.61696E+18,-63.64803687,-3.080961397,0.661319298,0.201145527,2
1.61696E+18,-63.63810376,2.433725277,-1.188099777,-0.715861036,2
1.61696E+18,-63.62817065,2.826035034,-2.62872061,-3.106132371,2
1.61696E+18,-63.61823877,9.073139326,-3.200555452,-5.419768794,2
1.61696E+18,-63.60830566,11.58625729,-4.890509942,-1.527870369,2
1.61696E+18,-63.5983728,10.51980879,-7.696636453,4.938734752,2
1.61696E+18,-63.5884397,10.81914245,-9.224460353,5.084090148,2
1.61696E+18,-63.57850659,9.40910731,-5.756166987,0.345039034,2
1.61696E+18,-63.56857471,11.61696924,7.30199533,-7.443015328,2
1.61696E+18,-63.5586416,7.526280471,28.81088053,-11.82544715,2
1.61696E+18,-63.54870874,-29.12813095,64.50177542,-6.012675066,2
1.61696E+18,-63.53877563,-1.876863255,53.16918661,-0.196851629,2
1.61696E+18,-63.52884375,7.168604512,37.415494,5.334794509,2
1.61696E+18,-63.51891064,-7.482022811,28.54236754,11.45368655,2
1.61696E+18,-63.50897754,-5.209402873,19.83680247,7.134740821,2
1.61696E+18,-63.49904492,2.300328614,15.1747494,1.583240667,2
1.61696E+18,-63.48911182,4.273208065,11.0402928,-1.726114768,2
1.61696E+18,-63.47917993,2.250700367,7.374300688,-6.426413103,2
1.61696E+18,-63.46924683,-5.335258035,5.763805519,-13.22145026,2
1.61696E+18,-63.45931396,-12.28417058,5.300217117,-17.24080047,2
1.61696E+18,-63.44938062,-17.43830223,5.291296144,-17.4465966,2
1.61696E+18,-63.43944775,-16.83896622,3.890631474,-19.09958242,2
1.61696E+18,-63.42951587,-15.33413332,6.206218447,-17.0270829,2
1.61696E+18,-63.41958301,-21.24046632,8.283824931,-13.42727211,2
1.61696E+18,-63.4096499,-17.32717761,6.657633012,-6.009042847,2
1.61696E+18,-63.3997168,6.652613138,2.512752636,-0.314101021,2
1.61696E+18,-63.38978467,16.18271999,-1.602727457,2.622828629,2
1.61696E+18,-63.37985205,15.59714596,-4.078197534,1.281561905,2
1.61696E+18,-63.36991895,19.86934397,-7.946880211,-0.275467046,2
1.61696E+18,-63.35998584,23.20490177,-8.707741833,-0.876744841,2
1.61696E+18,-63.35005273,25.75223647,-9.208835498,1.451890999,2
1.61696E+18,-63.34012085,23.16231584,-7.928470694,3.667228377,2
1.61696E+18,-63.33018774,17.4245987,-4.251065207,1.426838683,2
1.61696E+18,-63.32025488,-6.129691672,-2.530232763,-4.584453112,2
1.61696E+18,-63.31032178,-5.683723682,-2.338453469,-9.053015991,2
1.61696E+18,-63.30038989,8.150385598,-0.570942277,-6.455755518,2
1.61696E+18,-63.29045679,24.68482234,-5.027172329,-1.627503148,2
1.61696E+18,-63.28052368,26.33691969,-12.08116963,6.331805898,2
1.61696E+18,-63.27059082,15.92508612,-15.05418591,11.33241814,2
1.61696E+18,-63.26065796,20.31006646,-18.76295626,10.71043307,2
1.61696E+18,-63.25072583,27.11217575,-22.66982575,9.396265949,2
1.61696E+18,-63.24079272,24.97008773,-22.92463053,7.52859167,2
1.61696E+18,-63.23085962,19.23239514,-21.99733332,4.950587686,2
1.61696E+18,-63.220927,16.05590446,-21.09673238,1.249507017,2
1.61696E+18,-63.2109939,16.26979738,-18.72410777,-2.152966554,2
1.61696E+18,-63.20106177,16.06139312,-16.86175205,-3.200070591,2
1.61696E+18,-63.19112866,14.35441969,-15.11735169,-2.097557093,2
1.61696E+18,-63.1811958,11.92593465,-12.75335812,-0.171814364,2
1.61696E+18,-63.1712627,9.375061248,-10.96740058,1.704082092,2
1.61696E+18,-63.16133057,7.088146243,-10.11459133,2.861416436,2
1.61696E+18,-63.15139771,5.541864311,-9.386952177,3.40018809,2
1.61696E+18,-63.14146484,4.91170529,-7.964055802,3.990761243,2
1.61696E+18,-63.13153174,3.784093007,-5.506211983,4.734306404,2
1.61696E+18,-63.12159863,2.85204655,-2.804734764,4.597846262,2
1.61696E+18,-63.1116665,4.638766886,-1.216537352,3.933569283,2
1.61696E+18,-63.10173389,7.88852739,0.24456805,2.686367036,2
1.61696E+18,-63.09180078,8.840062391,1.675228045,1.625050933,2
1.61696E+18,-63.08186768,7.172144377,2.045108821,1.101549183,2
1.61696E+18,-63.07193579,4.979823718,2.222282082,0.080805767,2
1.61696E+18,-63.06200269,2.111165055,3.222214326,-2.127522316,2
1.61696E+18,-63.05206958,-1.468469794,4.584607425,-4.301064917,2
1.61696E+18,-63.04213672,-5.341323619,4.135200693,-5.03687247,2
1.61696E+18,-63.03220361,-9.350242449,2.358687864,-4.777938625,2
1.61696E+18,-63.02227173,-13.14544956,2.005774589,-7.627725414,2
1.61696E+18,-63.01233862,-18.58384239,4.927178754,-14.11927121,2
1.61696E+18,-63.00240552,-3.146000271,11.6639683,-8.995558074,2
1.61696E+18,-62.99247266,25.9138521,9.831625451,-3.641045303,2
1.61696E+18,-62.98253979,19.96456492,12.30424306,-5.767127941,2
1.61696E+18,-62.97260791,-37.27496324,38.84133695,-16.29279949,2
1.61696E+18,-62.96267383,-52.98307951,69.33947966,-21.83849534,2
1.61696E+18,-62.95274097,44.40743729,21.53257061,3.829246154,2
1.61696E+18,-62.94280786,34.74900334,-0.860275936,2.871949813,2
1.61696E+18,-62.93287598,10.93405478,-3.746578392,2.728796603,2
1.61696E+18,-62.92294287,10.33569258,-5.491458066,0.919267347,2
1.61696E+18,-62.91300977,8.778736693,-4.266427026,-1.952403649,2
1.61696E+18,-62.9030769,9.546226209,3.41783919,-5.524259096,2
1.61696E+18,-62.89314404,6.513755871,13.06413672,-6.899045813,2
1.61696E+18,-62.88321191,-6.791992382,16.12007794,-4.902427759,2
1.61696E+18,-62.87327881,-25.94139711,21.38243499,-0.61141808,2
1.61696E+18,-62.86334595,-16.57135924,21.41239291,5.777110406,2
1.61696E+18,-62.85341284,-1.462711084,9.748455585,6.269768836,2
1.61696E+18,-62.84348071,7.814908028,2.744537193,3.461575163,2
1.61696E+18,-62.83354785,8.087251389,-1.611967579,3.18421865,2
1.61696E+18,-62.82361499,4.934449037,-4.495057503,3.23859789,2
1.61696E+18,-62.81368188,2.794759314,-6.669411712,2.43479086,2
1.61696E+18,-62.80374878,1.156736817,-8.316797811,-0.03114055,2
1.61696E+18,-62.79381665,-0.942174467,-8.807381773,-3.425008351,2
1.61696E+18,-62.78388403,-1.172380815,-8.615549287,-3.267031665,2
1.61696E+18,-62.77395093,-0.952843088,-7.897640671,-0.595506956,2
1.61696E+18,-62.76401782,-0.955824223,-7.080297283,2.157140624,2
1.61696E+18,-62.75408594,-0.790942361,-6.543297023,4.198632132,2
1.61696E+18,-62.74415283,-0.585574614,-5.792256537,5.542833448,2
1.61696E+18,-62.73421973,-0.203787748,-5.20388674,5.869923715,2
1.61696E+18,-62.72428687,0.363689483,-4.812596681,4.942660985,2
1.61696E+18,-62.71435376,0.350731839,-4.633689144,3.187694217,2
1.61696E+18,-62.70442188,0.230386965,-4.43215944,1.303297644,2
1.61696E+18,-62.69448877,0.483999322,-3.97681455,-0.212253342,2
1.61696E+18,-62.68455566,0.565130376,-2.997835078,-1.08246352,2
1.61696E+18,-62.6746228,0.238039525,-1.525761122,-1.909462625,2
1.61696E+18,-62.66468994,-0.821436795,0.790414465,-3.000947072,2
1.61696E+18,-62.65475781,-4.632906469,4.345146343,-4.950073892,2
1.61696E+18,-62.64482471,-11.94238076,8.858473077,-7.424847803,2
1.61696E+18,-62.6348916,-13.50316643,10.97885487,-7.799277328,2
1.61696E+18,-62.62495898,-10.20381509,9.449236492,-7.331024441,2
1.61696E+18,-62.61502661,-6.548689822,5.076444602,-5.907804825,2
1.61696E+18,-62.60509375,-3.47776262,0.414915265,-3.743600253,2
1.61696E+18,-62.59516089,0.028700061,-3.21390827,-1.70741562,2
1.61696E+18,-62.58522778,2.660314603,-5.142485638,0.645207829,2
1.61696E+18,-62.57529565,3.976645039,-5.564746589,1.999902921,2
1.61696E+18,-62.56536255,3.973818291,-5.147907663,2.004106364,2
1.61696E+18,-62.55542993,3.972729911,-3.984202322,2.121600525,2
1.61696E+18,-62.54549683,3.380167338,-2.071329888,2.292293922,2
1.61696E+18,-62.53556372,2.226660151,-0.626674101,2.758299176,2
1.61696E+18,-62.52563184,1.333570909,0.300782105,3.269179783,2
1.61696E+18,-62.51569897,0.225579857,0.749697254,3.484732459,2
1.61696E+18,-62.50576587,-0.823657978,0.994710126,3.308811537,2
1.61696E+18,-62.49583276,-1.578406671,1.356890995,2.857605938,2
1.61696E+18,-62.48589966,-1.884105189,1.612156964,2.404140286,2
1.61696E+18,-62.47596802,-1.152265079,1.562348101,1.936727503,2
1.61696E+18,-62.46603491,0.350160176,1.356532683,1.150345801,2
1.61696E+18,-62.45610181,1.600557712,0.981127591,-0.064997957,2
1.61696E+18,-62.44616895,2.182556805,0.561113542,-1.392573864,2
1.61696E+18,-62.43623706,2.506471364,-0.000740005,-2.535993227,2
1.61696E+18,-62.42630396,2.643357038,-0.309699571,-3.281701119,2
1.61696E+18,-62.41637085,2.41004571,-0.345499199,-3.918722719,2
1.61696E+18,-62.40643774,1.635585186,-0.376570044,-4.50181516,2
1.61696E+18,-62.39650513,0.488926842,-0.865024592,-5.074315773,2
1.61696E+18,-62.386573,-1.652868914,-1.422530465,-5.378049129,2
1.61696E+18,-62.37663989,-4.86476526,-1.669586825,-5.114107685,2
1.61696E+18,-62.36670679,-6.554224075,-1.603534098,-4.162066488,2
1.61696E+18,-62.35677393,-5.817175875,-1.221155075,-3.388756011,2
1.61696E+18,-62.3468418,-4.824437926,-0.664945087,-2.841200455,2
1.61696E+18,-62.33690869,-4.171690641,0.371142758,-2.801483069,2
1.61696E+18,-62.32697583,-4.023540646,1.500848799,-2.924050879,2
1.61696E+18,-62.31704297,-5.036933845,2.42835995,-2.650074656,2
1.61696E+18,-62.30711084,-6.577068944,2.81351136,-2.047188842,2
1.61696E+18,-62.29717773,-7.815067017,2.770942969,-0.907457959,2
1.61696E+18,-62.28724463,-8.088478885,2.002144124,1.381713593,2
1.61696E+18,-62.27731201,-7.603319871,0.346563028,3.803741418,2
1.61696E+18,-62.26737891,-6.020895782,-1.706692859,6.117906542,2
1.61696E+18,-62.25744678,-3.323284006,-3.725181384,7.75311588,2
1.61696E+18,-62.24751367,-1.21943585,-5.264938883,8.661077697,2
1.61696E+18,-62.23758081,-0.706823743,-5.340623361,8.736334306,2
1.61696E+18,-62.22764795,-0.561503125,-4.532755658,8.306367603,2
1.61696E+18,-62.21771484,0.065854282,-2.961169773,7.153287116,2
1.61696E+18,-62.20778296,0.409031175,-0.826641962,5.055351545,2
1.61696E+18,-62.19784985,-0.266222833,0.325068989,2.872667314,2
1.61696E+18,-62.18791675,-3.704223351,0.867658448,-0.36178807,2
1.61696E+18,-62.17798364,-5.747968483,1.376735513,-7.135761981,2
1.61696E+18,-62.16805176,7.433400527,0.715508569,-11.25868538,2
1.61696E+18,-62.1581189,20.99208426,-0.043134208,-1.132548863,2
1.61696E+18,-62.14818579,16.23774922,-3.785301798,10.42457381,2
1.61696E+18,-62.13825269,11.69003681,-7.509657253,12.42187926,2
1.61696E+18,-62.12831958,17.64754236,-7.530252881,8.237340828,2
1.61696E+18,-62.1183877,12.00726619,-1.595420349,-0.207734842,2
1.61696E+18,-62.10845483,2.283250638,10.53451302,-7.82098121,2
1.61696E+18,-62.09852173,-18.44166913,27.04158187,-13.1195868,2
1.61696E+18,-62.08858862,-17.70915799,44.6313232,-13.65148068,2
1.61696E+18,-62.07865698,5.335750202,47.25253446,-4.579994086,2
1.61696E+18,-62.06872363,5.829347959,39.76296664,-1.399533035,2
1.61696E+18,-62.05879053,0.483984125,23.74267593,-0.891060951,2
1.61696E+18,-62.04885791,-1.244453241,17.25227463,-0.934293943,2
1.61696E+18,-62.03892603,-1.250160658,15.6594256,-2.030963976,2
1.61696E+18,-62.02899292,-1.641001512,15.74900825,-4.085234008,2
1.61696E+18,-62.01905981,-6.194218212,14.20098971,-6.350588924,2
1.61696E+18,-62.00912695,-11.80918225,10.80712117,-8.196518988,2
1.61696E+18,-61.99919409,-14.67821909,6.194659527,-7.307371178,2
1.61696E+18,-61.98926196,-15.25532223,2.05127202,-3.419037167,2
1.61696E+18,-61.97932886,-9.599878889,-1.333848557,-3.662530282,2
1.61696E+18,-61.969396,-0.249174667,-3.807891231,-9.066455318,2
1.61696E+18,-61.95945898,-11.73089255,0.496359038,-13.18700789,2
1.61696E+18,-61.94952686,-29.97525047,5.301824552,-11.61412495,2
1.61696E+18,-61.93959424,-22.31924589,6.338989087,-5.162743998,2
1.61696E+18,-61.92966113,3.154890556,3.670482994,-2.608195124,2
1.61696E+18,-61.91972803,19.91786162,-1.538770241,-0.334207112,2
1.61696E+18,-61.90979614,19.59665282,-4.29490844,0.305418825,2
1.61696E+18,-61.89986304,14.36602362,-5.338122192,-0.212890471,2
1.61696E+18,-61.88992993,14.63552795,-5.412312633,1.611950336,2
1.61696E+18,-61.87999707,22.65233218,-5.780432244,4.426549199,2
1.61696E+18,-61.87006396,26.76918532,-6.134777012,6.220093828,2
1.61696E+18,-61.86013208,19.47062288,-3.836798177,3.472291788,2
1.61696E+18,-61.85019897,7.429262697,-1.614627154,-0.079226974,2
1.61696E+18,-61.84026587,-0.127622171,0.383170465,0.276117035,2
1.61696E+18,-61.83033301,-1.428325415,0.82868019,0.504787259,2
1.61696E+18,-61.82040112,7.294147539,-2.599028067,2.343144988,2
1.61696E+18,-61.81046802,23.26936985,-6.468229215,7.651644049,2
1.61696E+18,-61.80053491,34.30010221,-9.463727374,15.48493061,2
1.61696E+18,-61.79060181,17.21219163,-12.57813716,15.22831849,2
1.61696E+18,-61.78066919,9.048417557,-16.99376515,6.880156988,2
1.61696E+18,-61.77073706,18.13818419,-20.27708306,1.968551213,2
1.61696E+18,-61.76080396,19.33625416,-19.39793174,-0.941537777,2
1.61696E+18,-61.75087109,16.84150772,-18.51124827,-3.345393547,2
1.61696E+18,-61.74093799,14.71261236,-18.54845894,-4.976040692,2
1.61696E+18,-61.7310061,12.63960548,-18.38802054,-6.212499135,2
1.61696E+18,-61.721073,11.2577934,-17.59478459,-6.836994138,2
1.61696E+18,-61.71114038,9.348271441,-17.26185729,-6.689054571,2
1.61696E+18,-61.70120728,6.419979271,-17.57145983,-5.524575907,2
1.61696E+18,-61.69127515,4.39781761,-16.59839221,-3.265021787,2
1.61696E+18,-61.68134204,3.893011062,-14.34284148,-0.857799025,2
1.61696E+18,-61.67140918,4.279947602,-12.02793839,0.924200712,2
1.61696E+18,-61.66147632,3.887068813,-10.01286114,2.83665492,2
1.61696E+18,-61.65154321,4.804689269,-7.776538257,4.55132358,2
1.61696E+18,-61.64161108,7.817458881,-6.031600131,5.017110369,2
1.61696E+18,-61.63167822,9.319005599,-4.444560657,4.732605445,2
1.61696E+18,-61.62174512,8.346531271,-2.928020952,4.19712465,2
1.61696E+18,-61.61181201,4.598742334,-1.187618716,2.750156494,2
1.61696E+18,-61.60187988,0.701648094,1.066674123,1.199598492,2
1.61696E+18,-61.59194727,-1.655907843,3.025316374,0.249797183,2
1.61696E+18,-61.58201416,-1.795914864,4.196848463,-0.011136603,2
1.61696E+18,-61.57208105,-1.600382209,5.159152695,0.164240568,2
1.61696E+18,-61.56214795,-1.990870889,5.617423118,-1.079605647,2
1.61696E+18,-61.55221606,-7.106703644,7.342368257,-5.653648862,2
1.61696E+18,-61.5422832,-13.61098617,15.35949105,-6.674358521,2
1.61696E+18,-61.5323501,18.54233081,18.64840634,-7.926068309,2
1.61696E+18,-61.52241699,-5.217981317,40.45414273,-17.48428657,2
1.61696E+18,-61.51248511,-46.91244559,63.54032109,-21.65404127,2
1.61696E+18,-61.502552,-0.7648504,48.4368553,-14.06959503,2
1.61696E+18,-61.4926189,15.10990488,20.54383079,-5.812265891,2
1.61696E+18,-61.48268604,-0.587166267,11.06672956,-5.359677606,2
1.61696E+18,-61.47275415,-3.768441264,8.032353678,-4.687660096,2
1.61696E+18,-61.46282104,7.251479779,7.983141611,-2.104702289,2
1.61696E+18,-61.45288794,4.81571306,8.866150772,-1.116116053,2
1.61696E+18,-61.44295483,0.438556252,10.14587377,-0.30080607,2
1.61696E+18,-61.43302222,4.01800873,9.484989942,1.80522206,2
1.61696E+18,-61.42309009,5.713544235,7.28281892,4.637684351,2
1.61696E+18,-61.41315698,6.366693086,5.472762718,6.589921996,2
1.61696E+18,-61.40322412,5.686536401,5.239820808,7.206575639,2
1.61696E+18,-61.39329102,3.227966022,4.149631954,5.641002146,2
1.61696E+18,-61.38335889,0.090194358,3.731276778,2.752540759,2
1.61696E+18,-61.37342603,-2.663239258,3.86407606,-0.006346593,2
1.61696E+18,-61.36349316,-3.006407676,2.328365791,-1.637225062,2
1.61696E+18,-61.35356006,-0.456265366,0.540335542,-2.585311092,2
1.61696E+18,-61.34362793,0.552604656,-1.617726289,-2.250484679,2
1.61696E+18,-61.33369482,0.790568925,-4.232176382,-1.452987708,2
1.61696E+18,-61.32376196,0.891872852,-6.807794347,-1.030277698,2
1.61696E+18,-61.3138291,0.598459376,-8.961261836,-1.178007276,2
1.61696E+18,-61.303896,-0.328412893,-10.08340475,-1.312094844,2
1.61696E+18,-61.29396411,-1.3632522,-10.77471645,-1.292210871,2
1.61696E+18,-61.28403125,-2.612872468,-11.05232928,-1.541864262,2
1.61696E+18,-61.27409814,-3.931680108,-9.552697451,-1.9039462,2
1.61696E+18,-61.26416504,-4.525159211,-6.019481239,-2.656018659,2
1.61696E+18,-61.2542334,-3.942721726,-3.033064212,-4.048881423,2
1.61696E+18,-61.24430029,-3.258812995,-1.158075811,-4.67464747,2
1.61696E+18,-61.23436719,-4.00388259,0.45331543,-3.782297356,2
1.61696E+18,-61.22443408,-5.052481542,2.400048048,-1.274980481,2
1.61696E+18,-61.2145022,-3.833483938,3.719568805,2.220286524,2
1.61696E+18,-61.20456909,-1.402131674,3.596240531,4.184882131,2
1.61696E+18,-61.19463623,-0.311573402,2.45441969,3.24646614,2
1.61696E+18,-61.18470313,-0.397920875,1.185639525,1.340757606,2
1.61696E+18,-61.17477124,-0.877117035,0.601147446,-0.446155768,2
1.61696E+18,-61.16483813,-1.527468949,-0.192928464,-1.777464577,2
1.61696E+18,-61.15490503,-1.999805014,-0.90018826,-1.85342685,2
1.61696E+18,-61.14497217,-2.073439428,-0.876036985,-1.230005029,2
1.61696E+18,-61.13503906,-1.564884926,-0.787203101,-0.207451495,2
1.61696E+18,-61.12510718,-0.282260944,-0.92285485,1.339447108,2
1.61696E+18,-61.11517407,0.9659195,-0.691976887,2.544678053,2
1.61696E+18,-61.10524097,1.043534289,-0.541028785,2.915054503,2
1.61696E+18,-61.09530786,-0.365369436,-0.257873522,2.38637988,2
1.61696E+18,-61.08537598,-2.157809318,0.00853402,1.723249149,2
1.61696E+18,-61.07544312,-3.055343848,-0.154372231,0.998887119,2
1.61696E+18,-61.06551001,-2.640473592,-0.521499909,0.109205056,2
1.61696E+18,-61.0555769,-2.049961376,-0.848004484,-0.680251085,2
1.61696E+18,-61.04564502,-1.299983843,-0.94335754,-1.08681587,2
1.61696E+18,-61.03571191,-0.607265636,-0.936022959,-0.96559889,2
1.61696E+18,-61.02577905,-0.775485045,-0.680689185,-0.613468875,2
1.61696E+18,-61.01584619,-1.225100452,-0.323381475,-0.279160494,2
1.61696E+18,-61.00591309,-1.31881217,-0.133876556,0.121137924,2
1.61696E+18,-60.99598096,-0.741041508,-0.027221769,0.467538455,2
1.61696E+18,-60.98604785,-0.185340201,0.045392801,0.598164046,2
1.61696E+18,-60.97611523,0.091415716,0.057213003,0.648596595,2
1.61696E+18,-60.96618652,0.348709393,0.266076118,0.807595317,2
1.61696E+18,-60.95625439,0.442178242,0.548117282,0.93419209,2
1.61696E+18,-60.94632153,0.369454075,0.666130498,0.976140742,2
1.61696E+18,-60.93638843,0.338755131,0.522432806,0.944419616,2
1.61696E+18,-60.92645557,0.347846638,0.314686712,0.73856182,2
1.61696E+18,-60.91652344,0.038854485,0.136788059,0.406894894,2
1.61696E+18,-60.90659033,-0.860237358,-0.044169397,0.314344766,2
1.61696E+18,-60.89665771,-1.971034554,-0.14281448,0.599519698,2
1.61696E+18,-60.88672461,-2.597822783,-0.155815416,1.09602472,2
1.61696E+18,-60.8767915,-2.466836688,0.504793104,1.652636859,2
1.61696E+18,-60.86685938,-0.773806298,1.887041243,1.711927983,2
1.61696E+18,-60.85692651,0.337910935,2.301515193,1.997027512,2
1.61696E+18,-60.84699365,0.292578632,1.267442194,1.869530136,2
1.61696E+18,-60.83706055,-0.805781545,-0.261601603,1.452704069,2
1.61696E+18,-60.82712842,-1.467052328,-1.388618258,0.690877401,2
1.61696E+18,-60.81719556,-1.850650956,-1.994928201,-0.113449561,2
1.61696E+18,-60.80726245,-1.966453802,-2.234039155,-0.563691575,2
1.61696E+18,-60.79732935,-1.82078744,-2.193678503,-1.407092657,2
1.61696E+18,-60.78739722,-2.229310081,-2.173104502,-1.98615219,2
1.61696E+18,-60.7774646,-3.195641377,-2.025219879,-1.529030061,2
1.61696E+18,-60.76753149,-4.113998331,-1.802859569,-0.657818597,2
1.61696E+18,-60.75759839,-4.342024996,-1.944206314,0.477831155,2
1.61696E+18,-60.74766626,-3.590660393,-2.367383211,1.861543521,2
1.61696E+18,-60.7377334,-1.410917476,-3.238345377,2.687820157,2
1.61696E+18,-60.72780054,1.525965412,-4.535965852,2.662818695,2
1.61696E+18,-60.71786743,3.362926865,-5.755182068,2.124710473,2
1.61696E+18,-60.7079353,3.756033326,-5.964643149,1.029679002,2
1.61696E+18,-60.69800244,2.973551116,-5.494716191,-0.307381649,2
1.61696E+18,-60.68806934,1.8657626,-4.581829193,-1.844899991,2
1.61696E+18,-60.67813623,0.017451193,-2.754802566,-3.586977613,2
1.61696E+18,-60.66820337,-4.278756931,-0.035291094,-5.155729735,2
1.61696E+18,-60.65827148,-12.57304247,2.958127337,-6.166107386,2
1.61696E+18,-60.64833838,-19.78188547,5.459881024,-5.346235356,2
1.61696E+18,-60.63840527,-14.08757258,5.538549487,-5.310878211,2
1.61696E+18,-60.62847217,8.030839181,0.196540809,-7.308626731,2
1.61696E+18,-60.61854053,22.16773314,-3.920737274,-5.666349938,2
1.61696E+18,-60.60860767,15.81176369,-4.56699695,-1.002341351,2
1.61696E+18,-60.59867456,7.463219911,-4.941397833,3.198923467,2
1.61696E+18,-60.58874121,2.825501073,-5.780972342,4.713183536,2
1.61696E+18,-60.57880957,5.693100582,-6.296683731,4.159395808,2
1.61696E+18,-60.56887646,11.20845624,-2.030140969,3.41746568,2
1.61696E+18,-60.55894336,10.24626307,6.385746747,1.731772063,2
1.61696E+18,-60.54901074,7.490657369,21.01675576,-0.369861779,2
1.61696E+18,-60.53907861,-26.17257551,54.87355424,-7.873994423,2
1.61696E+18,-60.52914551,-29.51991026,64.73406442,-2.178960242,2
1.61696E+18,-60.5192124,13.04399877,31.59810068,10.02849476,2
1.61696E+18,-60.50927954,-4.185385112,15.32150414,5.86941635,2
1.61696E+18,-60.49934741,-6.707586837,11.34401973,0.780777452,2
1.61696E+18,-60.48941455,2.105932854,11.44286004,-4.696991403,2
1.61696E+18,-60.47948145,2.210759256,11.97582242,-8.853186077,2
1.61696E+18,-60.46954858,-3.71858447,12.78723701,-11.12711885,2
1.61696E+18,-60.45961548,-10.99585628,11.29842585,-9.936417367,2
1.61696E+18,-60.44968335,-12.61447688,6.991061833,-5.380887567,2
1.61696E+18,-60.43975024,-7.156483866,2.01883047,-2.150006096,2
1.61696E+18,-60.42981763,-2.326310612,0.166675248,-3.208999455,2
1.61696E+18,-60.41988452,-8.073405819,2.696186711,-9.494227142,2
1.61696E+18,-60.40995239,-19.83859812,7.260288524,-16.19756217,2
1.61696E+18,-60.40001929,-27.05816125,10.19219362,-13.91988378,2
1.61696E+18,-60.39008643,-7.433364871,8.384625731,-12.28825171,2
1.61696E+18,-60.38015356,19.63256818,1.858241849,-13.24834177,2
1.61696E+18,-60.37022144,24.13144378,-4.829902621,-10.05782373,2
1.61696E+18,-60.36028833,17.17061459,-8.039179724,-6.674978114,2
1.61696E+18,-60.35035547,11.69927576,-7.438762931,-2.974265109,2
1.61696E+18,-60.34042236,13.89988144,-5.95505056,1.71735863,2
1.61696E+18,-60.33049023,20.61914994,-3.49176718,5.654155058,2
1.61696E+18,-60.32055762,23.74296118,-0.646581748,7.548292396,2
1.61696E+18,-60.31062451,18.83148794,1.617701155,7.592364762,2
1.61696E+18,-60.30069141,2.857375052,3.72988094,8.414958326,2
1.61696E+18,-60.29075928,-1.194406184,3.302479703,8.265843285,2
1.61696E+18,-60.28082642,14.75137552,-2.555206461,7.399555541,2
1.61696E+18,-60.27089331,23.57909631,-9.109435797,10.63747655,2
1.61696E+18,-60.26096045,27.1980841,-14.17328103,14.44657775,2
1.61696E+18,-60.25102832,22.85605209,-18.93253074,15.10599443,2
1.61696E+18,-60.24109546,19.27607529,-22.49900975,11.88307283,2
1.61696E+18,-60.23116235,25.30947049,-25.36941438,4.842769701,2
1.61696E+18,-60.22122925,20.94474267,-25.29129887,-1.446865572,2
1.61696E+18,-60.21129639,18.8758438,-23.01699434,-3.99541053,2
1.61696E+18,-60.20136475,20.96700126,-20.47194863,-5.71175326,2
1.61696E+18,-60.19143164,19.09731915,-18.40277387,-7.031248882,2
1.61696E+18,-60.18149854,14.55706524,-16.21366224,-7.458759425,2
1.61696E+18,-60.17156543,8.349902208,-14.51817233,-7.041103921,2
1.61696E+18,-60.16163354,2.79796717,-12.63711308,-5.174009488,2
1.61696E+18,-60.15170044,2.368710661,-11.17588668,-2.498425712,2
1.61696E+18,-60.14176758,2.959834725,-10.32620345,0.874226428,2
1.61696E+18,-60.13183447,5.048412685,-8.881638264,4.463889627,2
1.61696E+18,-60.12190259,10.51232107,-5.317787845,6.298160233,2
1.61696E+18,-60.11196948,14.39562614,-1.860751786,6.159031164,2
1.61696E+18,-60.10203638,10.37576623,-0.896022957,6.433239735,2
1.61696E+18,-60.09210352,3.472482342,-0.724677379,6.393149132,2
1.61696E+18,-60.08217163,-0.282553205,-0.383168712,4.668896651,2
1.61696E+18,-60.07223853,-2.26314703,1.993996473,2.08940842,2
1.61696E+18,-60.06230542,-3.197346135,5.448857526,-0.62955331,2
1.61696E+18,-60.05237231,-3.203999455,6.985361576,-3.084040074,2
1.61696E+18,-60.04244043,-4.762255318,5.662829363,-4.879388829,2
1.61696E+18,-60.03250732,-6.000461481,2.687483765,-5.718817792,2
1.61696E+18,-60.02257446,-3.001889321,-0.704046679,-5.470081516,2
1.61696E+18,-60.01264136,7.504743177,-4.300230512,-5.105773572,2
1.61696E+18,-60.00270947,15.47844476,-4.91827064,-7.178562427,2
1.61696E+18,-59.99277637,0.802099642,-1.56728205,-13.20554893,2
1.61696E+18,-59.98284326,-22.0703401,6.384216468,-17.12970624,2
1.61696E+18,-59.97291064,-20.38020207,23.71850011,-18.59413465,2
1.61696E+18,-59.96297803,-11.3185638,45.21664939,-18.85510263,2
1.61696E+18,-59.95304492,-4.151799653,65.69515869,-4.262455492,2
1.61696E+18,-59.94311182,-27.97179468,55.52117643,12.19146424,2
1.61696E+18,-59.93317871,6.219709212,14.73268952,6.23785511,2
1.61696E+18,-59.92324609,21.60411609,1.99047999,0.000442483,2
1.61696E+18,-59.91331396,-0.241715583,0.327228213,0.168127492,2
1.61696E+18,-59.90338086,-17.39126576,3.072191523,-0.43842532,2
1.61696E+18,-59.89344775,-4.060524807,0.080066055,-3.729439334,2
1.61696E+18,-59.88351489,8.00190827,0.6219687,-3.749300803,2
1.61696E+18,-59.87358276,4.439650965,4.599478247,-2.265315753,2
1.61696E+18,-59.8636499,0.117621294,8.505829852,-1.647527115,2
1.61696E+18,-59.85371704,1.037675407,12.29917058,-1.347202252,2
1.61696E+18,-59.84378394,5.032768542,15.67605758,-2.085649506,2
1.61696E+18,-59.83385181,2.634684487,16.8167766,-2.622652396,2
1.61696E+18,-59.8239187,-7.812470571,14.29830559,-2.196569549,2
1.61696E+18,-59.81398584,-0.399267906,5.875298393,-1.292177699,2
1.61696E+18,-59.80405298,6.030086219,0.42444414,-0.427527786,2
1.61696E+18,-59.79412109,4.28957234,-1.658584369,-0.210352185,2
1.61696E+18,-59.78418799,1.424125625,-4.015910881,0.16555998,2
1.61696E+18,-59.77425513,-1.109894256,-6.464578291,1.290475864,2
1.61696E+18,-59.76432178,-2.352898613,-7.761875525,2.290952006,2
1.61696E+18,-59.75438989,-2.430886254,-8.455314301,2.898203906,2
1.61696E+18,-59.74445703,-1.615267644,-8.950241845,2.922877744,2
1.61696E+18,-59.73452417,-0.101440121,-9.038359104,2.48459797,2
1.61696E+18,-59.72459106,1.066427528,-9.012018794,2.124363998,2
1.61696E+18,-59.71465894,1.641672982,-9.031378159,1.988852973,2
1.61696E+18,-59.70472583,1.950613843,-8.841408545,1.850832011,2
1.61696E+18,-59.69479297,2.403172902,-8.332607959,1.409037654,2
1.61696E+18,-59.68486011,2.668749254,-7.773137509,0.977535557,2
1.61696E+18,-59.67492798,2.722038945,-6.993545467,0.500071921,2
1.61696E+18,-59.66499512,2.784095881,-6.096787766,-0.347689987,2
1.61696E+18,-59.65506201,2.990280717,-5.304451393,-1.365728235,2
1.61696E+18,-59.64512891,3.13165435,-4.270211221,-2.060219735,2
1.61696E+18,-59.63519678,2.957009731,-2.766383698,-2.297334108,2
1.61696E+18,-59.62526416,2.439416766,-0.717099053,-1.918356272,2
1.61696E+18,-59.61533105,2.017881791,1.638684321,-1.270612641,2
1.61696E+18,-59.60539795,2.674182969,5.381608283,-1.727054533,2
1.61696E+18,-59.59546484,5.189060342,14.45035376,-4.568576328,2
1.61696E+18,-59.58553296,7.002890218,24.48902154,-7.879283761,2
1.61696E+18,-59.5756001,1.615800874,17.95829407,-5.486271019,2
1.61696E+18,-59.56566699,-2.455037529,4.938679222,-1.916471627,2
1.61696E+18,-59.55573389,-4.68344657,-1.860388798,-0.069648852,2
1.61696E+18,-59.545802,-12.53638359,-6.157817696,1.225162849,2
1.61696E+18,-59.5358689,-18.0929422,-7.30551006,0.228700181,2
1.61696E+18,-59.52593579,-7.769972323,-6.709913819,-0.733386025,2
1.61696E+18,-59.51600293,-2.534551211,-7.070089193,1.352100838,2
1.61696E+18,-59.50607104,1.358945589,-6.971280444,3.408801897,2
1.61696E+18,-59.49613794,3.089212216,-5.220809233,5.637505536,2
1.61696E+18,-59.48620483,0.928058848,-1.442995161,6.921456967,2
1.61696E+18,-59.47627173,-1.621467229,2.396535656,6.615013183,2
1.61696E+18,-59.46633984,-5.247573906,4.759112344,6.005202538,2
1.61696E+18,-59.45640698,-10.14056281,5.664792772,5.735706383,2
1.61696E+18,-59.44647388,-11.76878711,5.00908956,4.911920979,2
1.61696E+18,-59.43654077,-9.743391872,2.72518075,2.894532816,2
1.61696E+18,-59.42660889,-6.899934871,0.546757099,0.996303825,2
1.61696E+18,-59.41667578,-3.04257789,-1.226579438,-0.482545616,2
1.61696E+18,-59.40674268,-0.434623735,-2.385989128,-1.183990881,2
1.61696E+18,-59.39680981,-1.652576507,-2.61848797,-0.712611532,2
1.61696E+18,-59.38687817,-3.028361149,-2.265091296,0.118318336,2
1.61696E+18,-59.37694507,-1.812397067,-2.368058919,0.45914589,2
1.61696E+18,-59.36701196,0.590823182,-2.963269376,0.473601408,2
1.61696E+18,-59.35707886,1.749657556,-3.356704045,0.295319163,2
1.61696E+18,-59.34714697,0.583073737,-3.086419954,0.218461841,2
1.61696E+18,-59.33721411,-0.536785448,-2.442967737,0.35966231,2
1.61696E+18,-59.32728101,-1.51489749,-1.725831859,1.129220449,2
1.61696E+18,-59.31734814,-4.729105036,-0.3622288,2.339799769,2
1.61696E+18,-59.30741602,-8.186923477,1.051977489,1.52625592,2
1.61696E+18,-59.29748291,-3.578675648,0.149584997,-1.899226478,2
1.61696E+18,-59.2875498,7.757691518,-1.92855691,-4.069262532,2
1.61696E+18,-59.27761719,13.3184844,-3.531093813,-2.539093531,2
1.61696E+18,-59.26768506,7.325128368,-5.552004597,2.019770382,2
1.61696E+18,-59.25775195,0.01924363,-7.446810044,4.29279364,2
1.61696E+18,-59.24781885,8.89703574,-8.821540062,6.142388072,2
1.61696E+18,-59.23788599,12.56279463,-8.686768603,1.836441082,2
1.61696E+18,-59.22795386,1.79130474,0.118451607,-5.637382787,2
1.61696E+18,-59.218021,-8.154131799,17.5129258,-8.15021784,2
1.61696E+18,-59.20808789,-5.057708922,38.60320974,-11.24358834,2
1.61696E+18,-59.19815503,0.665834437,48.68997198,-8.437781567,2
1.61696E+18,-59.1882229,0.914542072,46.19439552,-0.313766382,2
1.61696E+18,-59.17828979,-2.946272648,37.31118723,5.712786695,2
1.61696E+18,-59.16835669,-3.082791243,25.97667651,5.077370484,2
1.61696E+18,-59.15842407,-0.932719241,18.28107174,0.389256799,2
1.61696E+18,-59.14849194,-0.933765535,14.54570564,-3.141047909,2
1.61696E+18,-59.13855884,-3.899582842,12.86095106,-5.754132851,2
1.61696E+18,-59.12862598,-10.12430725,12.78892043,-9.796815419,2
1.61696E+18,-59.11869287,-15.22944428,11.45955048,-13.03801092,2
1.61696E+18,-59.10876074,-13.16185007,8.163921956,-14.59356045,2
1.61696E+18,-59.09882788,-11.51848782,4.388931709,-18.87758802,2
1.61696E+18,-59.08889502,-14.32424784,2.539248429,-23.38452768,2
1.61696E+18,-59.07896191,-17.67487695,3.109569944,-19.9073753,2
1.61696E+18,-59.06902979,-18.06498802,2.875763526,-9.361033892,2
1.61696E+18,-59.05909668,-3.03600085,0.448693616,0.430978511,2
1.61696E+18,-59.04916406,18.76245825,-4.561225965,5.54294743,2
1.61696E+18,-59.03923096,19.47817958,-7.308544313,7.495783626,2
1.61696E+18,-59.02929907,15.45337345,-9.766032743,3.802230137,2
1.61696E+18,-59.01936597,17.60274811,-8.924700576,-2.367878594,2
1.61696E+18,-59.00943311,16.79250842,-5.581752085,-5.976886544,2
1.61696E+18,-58.9995,19.03761959,-3.853205122,-3.364388462,2
1.61696E+18,-58.98956787,17.47635344,-1.524546486,1.505282105,2
1.61696E+18,-58.97963525,9.052371263,0.134954998,2.81771495,2
1.61696E+18,-58.96970215,-7.304200731,2.598995918,-0.985081589,2
1.61696E+18,-58.95977002,1.455155554,1.601541462,-3.836080968,2
1.61696E+18,-58.94983813,20.12329301,-3.401760162,0.245426713,2
1.61696E+18,-58.93990503,35.38905013,-9.313412894,7.197001755,2
1.61696E+18,-58.92997192,20.78032133,-13.01195995,13.91043673,2
1.61696E+18,-58.92003882,18.61131725,-18.23221974,10.93239941,2
1.61696E+18,-58.91010693,24.04714169,-23.38070491,5.588358936,2
1.61696E+18,-58.90017407,20.63433348,-24.4562509,1.252297963,2
1.61696E+18,-58.89024097,20.17074684,-23.18272734,-1.456454946,2
1.61696E+18,-58.88030786,18.20919074,-21.87233448,-3.244634832,2
1.61696E+18,-58.87037598,14.17853354,-20.39399913,-4.935643215,2
1.61696E+18,-58.86044287,11.96303308,-17.53304622,-5.113397491,2
1.61696E+18,-58.85051001,11.37752452,-14.31650877,-3.586074526,2
1.61696E+18,-58.8405769,10.24826564,-12.03851941,-1.467749955,2
1.61696E+18,-58.83064502,8.390203824,-10.20704516,0.483554209,2
1.61696E+18,-58.82071191,6.798842394,-9.033570701,1.826885757,2
1.61696E+18,-58.81077881,4.93543571,-8.698959976,2.965242137,2
1.61696E+18,-58.80084595,3.4853427,-7.770971855,3.955503759,2
1.61696E+18,-58.79091382,4.213513767,-5.635462632,4.316498925,2
1.61696E+18,-58.78098096,6.838412773,-3.800063899,3.643690849,2
1.61696E+18,-58.77104785,9.395600179,-2.92626271,2.029176216,2
1.61696E+18,-58.76111475,8.160417747,-1.77654264,0.843787743,2
1.61696E+18,-58.75118286,4.65603337,-0.98234515,0.89455683,2
1.61696E+18,-58.74124976,1.384387635,-0.562003768,0.851791455,2
1.61696E+18,-58.73131689,-2.200714247,-0.976417513,1.001628673,2
1.61696E+18,-58.72138379,-7.042323234,-0.261546658,0.833795049,2
1.61696E+18,-58.7114519,-7.402770995,1.730634291,-0.551946193,2
1.61696E+18,-58.7015188,-7.262920042,1.334044956,-1.665523375,2
1.61696E+18,-58.69158569,-9.928917951,-0.182527481,-1.685062772,2
1.61696E+18,-58.68165283,-7.86330001,-0.457566658,-2.404985797,2
1.61696E+18,-58.67172095,0.057242229,0.974068904,-4.69362748,2
1.61696E+18,-58.66178809,7.913022365,6.747262429,-4.096953965,2
1.61696E+18,-58.65185498,16.63454255,13.42196933,-3.694080143,2
1.61696E+18,-58.64192163,4.071351321,30.96643827,-12.489699,2
1.61696E+18,-58.63198999,-12.46261927,47.41683187,-18.93448772,2
1.61696E+18,-58.62205688,-42.54878394,52.31152465,-11.38749062,2
1.61696E+18,-58.61212402,-49.3951766,60.54145257,-3.280606017,2
1.61696E+18,-58.60219092,30.57846303,17.27458233,-0.635106852,2
1.61696E+18,-58.59225903,29.8126435,1.462847862,-0.796127582,2
1.61696E+18,-58.58232593,9.744011465,-2.877746224,0.079292732,2
1.61696E+18,-58.57239282,4.768925005,-1.731139318,-1.906823801,2
1.61696E+18,-58.56246021,0.368925667,1.501187822,-4.612129346,2
1.61696E+18,-58.55252783,7.053688093,7.525293798,-8.434890522,2
1.61696E+18,-58.54259497,9.963768315,9.799041279,-8.118951765,2
1.61696E+18,-58.53266187,2.606345697,9.967020595,-4.757849192,2
1.61696E+18,-58.522729,-6.374419881,12.05976327,-2.499575467,2
1.61696E+18,-58.51279688,-11.92647475,16.16142235,3.575062134,2
1.61696E+18,-58.50286377,-6.313636035,14.2605782,7.264803956,2
1.61696E+18,-58.49293091,0.144350165,6.520255755,5.447758625,2
1.61696E+18,-58.48299805,2.376831423,1.767117225,4.505505539,2
1.61696E+18,-58.47306592,1.813924568,-2.125840646,4.262454616,2
1.61696E+18,-58.46313281,1.008957847,-5.740802829,3.826399532,2
1.61696E+18,-58.45319971,-0.116606199,-8.548421624,3.077287384,2
1.61696E+18,-58.44326709,-0.726496996,-10.09401031,2.322737137,2
1.61696E+18,-58.43333496,-0.720866224,-10.38826097,2.069226194,2
1.61696E+18,-58.42340186,-0.7321955,-9.954166958,2.80876475,2
1.61696E+18,-58.41346875,-0.277968179,-9.355724095,3.925236631,2
1.61696E+18,-58.40353589,0.169035547,-8.644607624,4.223935208,2
1.61696E+18,-58.39360376,0.765185331,-8.324244036,3.976992829,2
1.61696E+18,-58.38367065,1.500978563,-7.533118208,3.301751389,2
1.61696E+18,-58.37373804,1.139546467,-7.122268293,2.555222243,2
1.61696E+18,-58.36380493,0.566511565,-7.264861239,1.764463641,2
1.61696E+18,-58.3538728,0.328012642,-7.205415363,1.05024292,2
1.61696E+18,-58.3439397,0.278124867,-7.085241169,0.484496458,2
1.61696E+18,-58.33400684,0.373582114,-6.718595138,-0.008404986,2
1.61696E+18,-58.32407397,0.493821555,-5.668274184,-0.738914141,2
1.61696E+18,-58.31414209,0.899532426,-2.857666728,-1.948546389,2
1.61696E+18,-58.30420898,2.524384037,4.467772021,-4.620249232,2
1.61696E+18,-58.29427588,4.649747714,19.33696377,-10.0293844,2
1.61696E+18,-58.28434277,-1.458508371,31.05989397,-14.7896617,2
1.61696E+18,-58.27441089,-21.1144621,22.66200719,-8.631579215,2
1.61696E+18,-58.26447778,-22.18480352,9.402901442,-0.219277834,2
1.61696E+18,-58.25454517,-11.0714408,2.282636305,0.458888554,2
1.61696E+18,-58.24461206,-3.479541905,-4.391338185,-0.636020022,2
1.61696E+18,-58.23467993,1.799144348,-8.726822966,-1.764949233,2
1.61696E+18,-58.22474683,4.252764996,-9.928879372,-2.508959089,2
1.61696E+18,-58.21481396,3.995089043,-10.1442979,-2.046886937,2
1.61696E+18,-58.20488184,3.504758179,-9.965817649,-0.905702859,2
1.61696E+18,-58.19494897,3.527061196,-8.523116503,1.244054597,2
1.61696E+18,-58.18501611,3.36708457,-4.906763742,2.210848249,2
1.61696E+18,-58.17508301,2.130009456,-1.121167929,1.793381108,2
1.61696E+18,-58.16515088,0.074330142,2.048469822,1.42679689,2
1.61696E+18,-58.15521777,-2.512146487,4.485845438,1.799474311,2
1.61696E+18,-58.14528491,-4.27706474,5.498280021,2.815805609,2
1.61696E+18,-58.13535205,-3.258700183,5.410558483,3.717479723,2
1.61696E+18,-58.12541992,-1.268117902,4.341325323,4.338315036,2
1.61696E+18,-58.11548682,-0.171241606,2.695097747,4.372793059,2
1.61696E+18,-58.10555396,-0.681160967,1.651530359,4.099606817,2
1.61696E+18,-58.09562085,-1.199329101,1.488771992,2.217519251,2
1.61696E+18,-58.08568872,-1.521531522,0.924264717,0.249638193,2
1.61696E+18,-58.07575586,-1.287072777,0.825655874,-1.199753537,2
1.61696E+18,-58.065823,-0.731957015,0.631882776,-2.114764541,2
1.61696E+18,-58.05588989,0.257769441,0.118114923,-2.248956592,2
1.61696E+18,-58.04595776,1.432517021,-0.582615179,-2.469803137,2
1.61696E+18,-58.03602466,2.063624136,-1.749608456,-2.594350431,2
1.61696E+18,-58.02609204,1.720274809,-2.287164596,-2.165814637,2
1.61696E+18,-58.01615894,1.494462313,-2.022164583,-1.707546991,2
1.61696E+18,-58.00622681,1.293038408,-1.477511178,-1.354627726,2
1.61696E+18,-57.99629395,1.014240171,-0.826990337,-0.960586761,2
1.61696E+18,-57.98636084,0.777195502,-0.069286887,-0.625110505,2
1.61696E+18,-57.97642773,0.606470102,0.59389879,-0.121809247,2
1.61696E+18,-57.96649585,0.53582011,0.964334861,0.797834678,2
1.61696E+18,-57.95656152,0.1717238,1.084000521,1.999241388,2
1.61696E+18,-57.94662866,0.019262353,1.339632401,3.645421034,2
1.61696E+18,-57.93669556,0.822248696,1.194471066,4.914400521,2
1.61696E+18,-57.92676367,1.722137096,0.80896602,4.751580487,2
1.61696E+18,-57.91683081,1.864578066,0.369100439,3.716291975,2
1.61696E+18,-57.90689795,1.829613136,-0.140152567,2.516009884,2
1.61696E+18,-57.8969646,1.879364132,-0.846758868,1.466608091,2
1.61696E+18,-57.88703271,1.760204669,-1.658435316,0.862704333,2
1.61696E+18,-57.87709961,1.425780406,-2.1690789,0.565827418,2
1.61696E+18,-57.86716699,1.06264399,-1.843694268,0.308678703,2
1.61696E+18,-57.85723389,0.460324469,-0.982913305,0.092802348,2
1.61696E+18,-57.84730176,-0.220396865,-0.212628605,-0.179598296,2
1.61696E+18,-57.83736865,-0.748520027,0.253459213,-0.475320633,2
1.61696E+18,-57.82743579,-1.638809409,0.4448007,-0.762175628,2
1.61696E+18,-57.81750269,-4.807893618,0.589202741,-1.322102882,2
1.61696E+18,-57.80757056,-6.926023252,0.651987991,-2.423291561,2
1.61696E+18,-57.79763794,-6.358415087,0.414531234,-3.199543645,2
1.61696E+18,-57.78770483,-5.803216323,0.519152469,-3.725320208,2
1.61696E+18,-57.77777173,-6.811145996,0.806861157,-3.997442912,2
1.61696E+18,-57.7678396,-8.346585631,1.349872056,-3.755990364,2
1.61696E+18,-57.75790674,-8.828896854,1.712858396,-3.026556437,2
1.61696E+18,-57.74797388,-8.379394845,1.862690061,-2.0536557,2
1.61696E+18,-57.73804175,-7.43227766,1.828065322,-0.917479002,2
1.61696E+18,-57.72810864,-6.197826466,1.598268724,0.151074651,2
1.61696E+18,-57.71817578,-4.934506905,1.283484982,1.081189555,2
1.61696E+18,-57.70824268,-4.011526967,0.835992559,1.828906157,2
1.61696E+18,-57.69831055,-3.645433893,0.234527718,2.240199431,2
1.61696E+18,-57.68837744,-3.969391122,-0.527312394,2.445088675,2
1.61696E+18,-57.67844482,-4.256671941,-1.768898847,2.342921555,2
1.61696E+18,-57.66851172,-3.689243809,-3.081857761,1.618331269,2
1.61696E+18,-57.65857959,-2.821958286,-4.497432415,1.106532378,2
1.61696E+18,-57.64864648,-2.134087958,-5.959026478,1.648175349,2
1.61696E+18,-57.63871362,-1.005537809,-7.011073525,1.88541481,2
1.61696E+18,-57.62878076,1.317405956,-7.569478976,0.010431378,2
1.61696E+18,-57.61884863,2.668977509,-6.497088814,-2.755328051,2
1.61696E+18,-57.60891553,0.81695585,-3.604809622,-7.668542577,2
1.61696E+18,-57.59898267,-5.028877964,-0.747889328,-12.76301559,2
1.61696E+18,-57.58904956,3.138525989,3.107413058,-10.15803884,2
1.61696E+18,-57.57911768,23.34137594,3.886394859,2.008153447,2
1.61696E+18,-57.56918481,16.17549763,0.3521721,11.43143614,2
1.61696E+18,-57.55925195,10.79769167,-3.342013257,10.79934119,2
1.61696E+18,-57.5493186,18.27044981,0.975052655,5.147770885,2
1.61696E+18,-57.53938672,20.35953572,9.852476516,-1.726092994,2
1.61696E+18,-57.52945386,11.67486379,16.130763,-6.835126591,2
1.61696E+18,-57.51952075,4.28134344,25.38129186,-11.13817917,2
1.61696E+18,-57.50958789,-14.34604583,47.80271919,-17.97348229,2
1.61696E+18,-57.49965576,-28.81567595,57.51296049,-13.03477384,2
1.61696E+18,-57.4897229,6.240356279,33.42016998,0.923470936,2
1.61696E+18,-57.47978979,1.138897647,22.95551667,4.29371923,2
1.61696E+18,-57.46985767,-9.479895249,17.56260432,3.110121733,2
1.61696E+18,-57.45992456,-9.639982936,14.63403625,-0.649983519,2
1.61696E+18,-57.4499917,-10.3299175,12.68552084,-4.305810358,2
1.61696E+18,-57.44005884,-13.71841077,10.87985323,-5.896565638,2
1.61696E+18,-57.43012671,-16.27120608,7.551071213,-5.031065829,2
1.61696E+18,-57.42019385,-18.16129385,3.492023201,-4.680051374,2
1.61696E+18,-57.41026074,-13.95427821,1.884918844,-9.849473243,2
1.61696E+18,-57.40032764,-9.425784889,1.183478547,-14.36203951,2
1.61696E+18,-57.39039551,-21.68206793,6.434870551,-13.62031631,2
1.61696E+18,-57.38046289,-35.1640092,9.753962366,-6.320930868,2
1.61696E+18,-57.37052979,-18.6689137,6.991254726,-0.081897946,2
1.61696E+18,-57.36059668,16.36029657,2.432792964,5.386418313,2
1.61696E+18,-57.35066455,28.18892118,-2.738435953,10.04639165,2
1.61696E+18,-57.34073169,19.96380037,-5.637845143,8.639389012,2
1.61696E+18,-57.33079883,15.34353828,-6.425841441,2.043229875,2
1.61696E+18,-57.32086572,14.7923996,-6.289120017,-4.300757458,2
1.61696E+18,-57.31093359,17.17461622,-5.269380664,-6.436773754,2
1.61696E+18,-57.30100073,19.15330232,-3.039920654,-4.761655599,2
1.61696E+18,-57.29106763,12.11777473,0.117121236,-4.436443401,2
1.61696E+18,-57.28113452,-1.375321554,1.840768152,-4.895201023,2
1.61696E+18,-57.27120239,-3.892159999,1.83232181,-5.390428718,2
1.61696E+18,-57.26126978,11.07232226,-1.458515386,-5.49672227,2
1.61696E+18,-57.25133667,28.93714661,-6.273703837,-1.236860009,2
1.61696E+18,-57.24140479,31.09037328,-9.654454528,7.489491248,2
1.61696E+18,-57.23147192,19.73941177,-13.93528476,10.31203815,2
1.61696E+18,-57.22153882,24.64611998,-21.48857716,5.756211411,2
1.61696E+18,-57.21160571,29.99082447,-25.58340784,2.245980645,2
1.61696E+18,-57.20167358,24.03534838,-24.51739891,0.892156199,2
1.61696E+18,-57.19174097,21.55886007,-23.22733338,-0.563620118,2
1.61696E+18,-57.18180786,18.53931117,-21.91044297,-3.45650882,2
1.61696E+18,-57.17187476,15.10209099,-19.33394764,-6.864521028,2
1.61696E+18,-57.16194263,13.49843648,-15.97938119,-7.970331229,2
1.61696E+18,-57.15200977,12.88648765,-12.99635322,-6.519404106,2
1.61696E+18,-57.1420769,11.484153,-10.74597668,-4.168392184,2
1.61696E+18,-57.1321438,9.325328373,-9.25716143,-1.819676556,2
1.61696E+18,-57.12221167,6.831182822,-8.445937986,0.282087962,2
1.61696E+18,-57.11227881,3.614164895,-7.947640089,2.222216323,2
1.61696E+18,-57.1023457,1.152506486,-7.450362768,4.383426097,2
1.61696E+18,-57.09241284,3.188290429,-6.480232372,5.995406536,2
1.61696E+18,-57.08248047,9.387763494,-5.482917032,5.523897862,2
1.61696E+18,-57.07254785,10.91622686,-4.440900381,4.475279036,2
1.61696E+18,-57.06261475,7.880900549,-2.40362766,3.852887726,2
1.61696E+18,-57.05268262,4.166038314,-1.514090558,3.296307737,2
1.61696E+18,-57.04274951,0.508518846,-2.195370694,3.159907215,2
1.61696E+18,-57.03281665,-2.604500361,-1.471811505,3.243731162,2
1.61696E+18,-57.02288379,-5.001234755,3.496213638,1.526805078,2
1.61696E+18,-57.01295166,-8.199406527,9.741641814,-1.286281335,2
1.61696E+18,-57.0030188,-11.19014434,12.55100131,-3.499465334,2
1.61696E+18,-56.99308569,-15.79801106,13.3288585,-5.36531415,2
1.61696E+18,-56.98315259,-27.10217808,17.94907032,-11.83707446,2
1.61696E+18,-56.97322046,-23.08144607,18.49014002,-15.72208284,2
1.61696E+18,-56.96328467,33.090848,11.44154136,-12.46087272,2
1.61696E+18,-56.95335181,45.10651612,18.55387629,-15.74085768,2
1.61696E+18,-56.9434187,-31.791042,25.99779645,-28.41657141,2
1.61696E+18,-56.93348682,-43.478791,30.70038495,-19.61088943,2
1.61696E+18,-56.92355371,31.42481098,34.78858014,0.763143011,2
1.61696E+18,-56.91362061,20.92390095,29.44820111,7.361403797,2
1.61696E+18,-56.90368799,7.837885583,18.52218936,11.73548573,2
1.61696E+18,-56.89375562,4.908956284,12.35871115,16.3701177,2
1.61696E+18,-56.88382275,0.502329636,8.934992838,17.06669127,2
1.61696E+18,-56.87388965,-6.13515929,9.244617005,13.60446057,2
1.61696E+18,-56.86395801,-6.897443638,11.57020164,5.02703672,2
1.61696E+18,-56.8540249,-0.472851613,14.06691207,-0.973287252,2
1.61696E+18,-56.8440918,3.499226264,13.88262869,-3.495765018,2
1.61696E+18,-56.83415894,3.965641122,10.97327737,-3.836876503,2
1.61696E+18,-56.82422705,4.400503781,7.269794019,-3.821981131,2
1.61696E+18,-56.81429395,4.52023403,3.749766959,-4.602271677,2
1.61696E+18,-56.80436084,3.756562026,1.022097899,-5.770830888,2
1.61696E+18,-56.79442773,2.547290281,-1.504042042,-7.377810157,2
1.61696E+18,-56.78449585,1.7875638,-3.957099796,-7.79928025,2
1.61696E+18,-56.77456274,1.494763926,-6.254246272,-6.334560749,2
1.61696E+18,-56.76462988,1.210337401,-8.688859438,-4.077563035,2
1.61696E+18,-56.75469678,0.845713231,-10.31680785,-1.231381578,2
1.61696E+18,-56.74476489,0.029690826,-11.17064118,1.393526342,2
1.61696E+18,-56.73483179,0.210993113,-11.73251402,3.073554628,2
1.61696E+18,-56.72489868,0.48903907,-11.57628885,4.549138345,2
1.61696E+18,-56.71496606,0.458569113,-10.54130049,5.484637865,2
1.61696E+18,-56.70503394,0.107744956,-9.585703064,5.105722719,2
1.61696E+18,-56.69510083,-0.166303492,-8.745532342,3.930256213,2
1.61696E+18,-56.68516772,0.225723613,-7.728661238,2.631784089,2
1.61696E+18,-56.67523584,0.398660368,-7.035989355,1.737553276,2
1.61696E+18,-56.66530273,-0.127893316,-6.426445252,1.279930797,2
1.61696E+18,-56.65536963,-0.741879786,-5.801452236,0.959983388,2
1.61696E+18,-56.64543677,-0.900003551,-4.35891651,0.335384924,2
1.61696E+18,-56.63550488,-1.458492005,1.036780504,-1.088880986,2
1.61696E+18,-56.62557178,-10.40289038,18.30041941,-5.748160206,2
1.61696E+18,-56.61563867,-10.26877534,38.59327053,-12.26892976,2
1.61696E+18,-56.60570557,-2.868281646,30.47699471,-8.122867477,2
1.61696E+18,-56.59577368,-9.499460366,10.21938208,2.688498495,2
1.61696E+18,-56.58584082,-7.27434686,1.36547879,5.057189866,2
1.61696E+18,-56.57590771,-2.55463889,-4.543244318,3.067508333,2
1.61696E+18,-56.56597461,0.638655631,-8.992754707,1.209004911,2
1.61696E+18,-56.55604297,1.80971718,-11.97939385,0.338291751,2
1.61696E+18,-56.54610962,3.233943343,-13.14289636,0.230873871,2
1.61696E+18,-56.53617676,5.986435878,-10.87415999,-0.637690878,2
1.61696E+18,-56.52624487,5.377623597,-7.191918752,-0.786676155,2
1.61696E+18,-56.51631201,3.131763071,-4.049351963,-0.14694588,2
1.61696E+18,-56.50637891,-0.656496408,-1.137467907,0.632032413,2
1.61696E+18,-56.4964458,-3.962076415,2.007730984,1.291792207,2
1.61696E+18,-56.48651392,-4.894801502,3.753446524,2.128529739,2
1.61696E+18,-56.47658081,-8.877958115,4.554391735,3.386154596,2
1.61696E+18,-56.46664795,-9.655034374,5.455533935,3.602402561,2
1.61696E+18,-56.45671484,-4.669626134,4.717686109,2.692335296,2
1.61696E+18,-56.44678296,-1.817411826,2.961474309,1.641815021,2
1.61696E+18,-56.43684985,-0.705893184,1.716307659,0.575016102,2
1.61696E+18,-56.42691675,-0.601328063,1.049713636,-0.35950142,2
1.61696E+18,-56.41698389,-0.691463677,0.341258492,-0.95476843,2
1.61696E+18,-56.40705176,-0.784779089,-0.470519663,-1.201233692,2
1.61696E+18,-56.3971189,-0.959989526,-1.298356388,-1.223333296,2
1.61696E+18,-56.38718579,-1.151420444,-2.055388807,-1.066202121,2
1.61696E+18,-56.37725391,-1.409863291,-2.538432436,-0.597213029,2
1.61696E+18,-56.3673208,-1.322448042,-2.612278594,-0.076175623,2
1.61696E+18,-56.3573877,-0.683002138,-2.311536821,0.03119491,2
1.61696E+18,-56.34745483,0.028169242,-1.683205016,-0.020138825,2
1.61696E+18,-56.33752295,0.44943647,-0.947173883,0.056512891,2
1.61696E+18,-56.32758984,0.450498035,-0.260478152,0.208842949,2
1.61696E+18,-56.31765674,0.201989795,0.243635738,0.211873695,2
1.61696E+18,-56.30772363,-0.069850439,0.683342914,0.003809329,2
1.61696E+18,-56.29779175,-0.336156201,1.112260985,-0.268643046,2
1.61696E+18,-56.28785889,-0.504159482,1.496391235,-0.66172671,2
1.61696E+18,-56.27792578,-0.399850455,1.76346104,-0.911120135,2
1.61696E+18,-56.26799268,0.011379399,1.73123401,-0.867354935,2
1.61696E+18,-56.25806079,0.392543858,1.417268014,-0.732060768,2
1.61696E+18,-56.24812769,0.690129871,1.283184538,-0.69200319,2
1.61696E+18,-56.23819458,1.078587848,1.448413678,-0.884166515,2
1.61696E+18,-56.22826294,1.560852309,1.626608684,-1.254902738,2
1.61696E+18,-56.21833008,1.972498343,1.701413457,-1.87484607,2
1.61696E+18,-56.20839697,1.999442464,1.404407948,-2.487231534,2
1.61696E+18,-56.19846362,1.120937555,0.81805592,-2.700198869,2
1.61696E+18,-56.18853198,-0.77182433,0.221829564,-2.476931089,2
1.61696E+18,-56.17859888,-2.705196532,-0.532957707,-2.069099937,2
1.61696E+18,-56.16866577,-3.330189548,-1.319885498,-1.531280762,2
1.61696E+18,-56.15873291,-2.367648877,-2.265479419,-1.328871645,2
1.61696E+18,-56.14880103,-0.757198131,-3.354608534,-1.130260606,2
1.61696E+18,-56.13886792,0.452248385,-4.205670652,-1.181280891,2
1.61696E+18,-56.12893481,-0.395590094,-4.434057967,-1.492441182,2
1.61696E+18,-56.11900293,-2.078490574,-4.815940147,-2.009975402,2
1.61696E+18,-56.10906982,-3.510006894,-5.598235018,-2.10084576,2
1.61696E+18,-56.09913696,-5.246123707,-5.421832157,-0.792180159,2
1.61696E+18,-56.08920386,-4.935705175,-4.824953474,1.270061729,2
1.61696E+18,-56.07927197,-6.088523795,-5.147946826,4.784866378,2
1.61696E+18,-56.06933887,-8.515010353,-5.252218517,6.43746349,2
1.61696E+18,-56.05940576,3.913919118,-5.0941977,2.890843022,2
1.61696E+18,-56.0494729,8.744080974,-4.74235001,3.848672739,2
1.61696E+18,-56.03954077,6.923222223,-4.737032614,5.364747749,2
1.61696E+18,-56.02960791,6.07481968,-3.787520643,4.57704605,2
1.61696E+18,-56.0196748,1.809567542,-1.323349959,3.70914561,2
1.61696E+18,-56.0097417,4.85188532,0.64581544,3.626939036,2
1.61696E+18,-55.99980981,4.470810366,1.607353948,3.085268446,2
1.61696E+18,-55.98987671,5.000494165,4.366307789,1.140811518,2
1.61696E+18,-55.97994385,2.415608898,9.974463896,-1.748973811,2
1.61696E+18,-55.97001172,-3.694514443,19.47786862,-4.670172954,2
1.61696E+18,-55.96008203,-6.723035166,29.58775688,-6.273194134,2
1.61696E+18,-55.95014917,-5.328869795,33.8600905,-4.95876807,2
1.61696E+18,-55.94021606,-2.539988141,32.44421014,-1.504311361,2
1.61696E+18,-55.93028394,-0.991403778,30.07294278,-0.98883042,2
1.61696E+18,-55.92035107,0.260595933,26.12062087,-2.432805239,2
1.61696E+18,-55.91041821,0.580137976,21.60361106,-3.40307592,2
1.61696E+18,-55.90048511,0.089611882,17.95549655,-3.669505089,2
1.61696E+18,-55.89055298,-1.577275182,14.94799816,-3.295485606,2
1.61696E+18,-55.88061987,-4.578830011,12.3216057,-2.780736341,2
1.61696E+18,-55.87068701,-7.775127806,10.18394018,-2.989024287,2
1.61696E+18,-55.86075415,-11.05295822,7.735386163,-2.379503857,2
1.61696E+18,-55.85082202,-13.2142396,5.569532655,-2.556073599,2
1.61696E+18,-55.84088892,-14.34854758,3.263295694,-7.334176767,2
1.61696E+18,-55.83095605,-7.931441819,3.076339874,-15.83540877,2
1.61696E+18,-55.82102393,-9.6427033,5.631052999,-19.63098997,2
1.61696E+18,-55.81109082,-22.48838548,7.620033106,-16.46273169,2
1.61696E+18,-55.80115796,-23.67887186,4.144995526,-7.97391201,2
1.61696E+18,-55.7912251,-0.108965694,-1.076354974,-0.464533867,2
1.61696E+18,-55.78129297,23.90223872,-8.186943935,5.347616581,2
1.61696E+18,-55.77135986,25.7794939,-13.70151224,8.641918239,2
1.61696E+18,-55.761427,15.92769542,-15.50140712,7.130013208,2
1.61696E+18,-55.75149414,8.265839193,-13.43033033,3.59581383,2
1.61696E+18,-55.74156201,10.07269981,-9.953166257,1.784261544,2
1.61696E+18,-55.73162891,15.00466288,-7.655079285,2.232550086,2
1.61696E+18,-55.72169604,15.03868205,-4.693474043,1.325090958,2
1.61696E+18,-55.71176416,9.006780894,-3.985332203,-0.936313174,2
1.61696E+18,-55.70183105,-0.002018939,-4.230487113,0.908747779,2
1.61696E+18,-55.69189795,2.787359266,-5.033717805,5.447476301,2
1.61696E+18,-55.68196533,15.87481841,-8.860770248,5.005174432,2
1.61696E+18,-55.6720332,21.33492505,-11.63099659,4.97343957,2
1.61696E+18,-55.6621001,19.23993547,-13.56732121,7.248299396,2
1.61696E+18,-55.65216699,14.35616273,-17.05568706,7.44899031,2
1.61696E+18,-55.64223413,8.513988024,-19.46365304,4.68063122,2
1.61696E+18,-55.632302,9.454131278,-20.94041486,1.970029322,2
1.61696E+18,-55.6223689,14.64254689,-20.41782891,1.265173957,2
1.61696E+18,-55.61243628,15.49696592,-17.27215188,1.905750327,2
1.61696E+18,-55.60250415,13.23483581,-14.43265443,1.697676316,2
1.61696E+18,-55.59257104,10.81579314,-11.83757481,0.939718599,2
1.61696E+18,-55.58263794,9.05562705,-10.07888522,0.337435135,2
1.61696E+18,-55.57270508,8.277623739,-9.546505026,-0.024895664,2
1.61696E+18,-55.56277295,8.148815572,-9.624725745,-0.098928869,2
1.61696E+18,-55.55284009,7.606464015,-9.792386497,0.255709622,2
1.61696E+18,-55.54290698,6.361024978,-9.51594856,1.020468252,2
1.61696E+18,-55.53297412,5.467333678,-8.719880599,1.856961308,2
1.61696E+18,-55.52304199,4.757807107,-7.99002494,2.432106736,2
1.61696E+18,-55.51310889,4.270159783,-7.412960966,2.879169535,2
1.61696E+18,-55.50317603,4.048702267,-6.697709002,3.282675225,2
1.61696E+18,-55.49324316,3.252077842,-5.601689542,3.525029983,2
1.61696E+18,-55.48331104,2.717869258,-4.736131866,3.106837304,2
1.61696E+18,-55.47337793,3.141170366,-4.179862842,2.842608568,2
1.61696E+18,-55.46344482,4.581442824,-3.123364076,2.995271072,2
1.61696E+18,-55.45351294,6.615832682,-1.124587967,2.876879378,2
1.61696E+18,-55.44357983,6.41795098,0.010733575,2.568737558,2
1.61696E+18,-55.43364697,3.563203354,-1.125564703,2.293972523,2
1.61696E+18,-55.42371387,0.885109495,-1.816606355,0.840748375,2
1.61696E+18,-55.41378223,-7.346742234,1.140246724,-1.430071235,2
1.61696E+18,-55.40384888,-60.4073726,26.95874109,-7.5327371,2
1.61696E+18,-55.39391577,6.483790357,29.08716766,-14.54997967,2
1.61696E+18,-55.38398315,46.80634786,32.20189776,-24.5582149,2
1.61696E+18,-55.37405103,-13.06104576,37.23771049,-33.00609701,2
1.61696E+18,-55.36411816,-73.82908942,40.21925845,-33.20787396,2
1.61696E+18,-55.35418506,2.99433233,29.39886045,0.363328285,2
1.61696E+18,-55.34425317,47.96720833,21.07403891,12.21449206,2
1.61696E+18,-55.33432007,25.1590847,13.54603527,6.33320232,2
1.61696E+18,-55.32438696,7.433584067,10.12142673,4.553514953,2
1.61696E+18,-55.3144541,7.309342186,8.187503907,0.362022317,2
1.61696E+18,-55.30452222,5.077463423,8.501628309,-0.791263629,2
1.61696E+18,-55.29458911,6.178723706,12.05203706,3.153271138,2
1.61696E+18,-55.28465601,5.644180776,13.01397538,6.242928175,2
1.61696E+18,-55.2747229,-0.905125716,13.12802613,4.705922021,2
1.61696E+18,-55.26479102,-14.50339444,17.19784279,3.750335407,2
1.61696E+18,-55.25485791,-11.57975507,15.55960212,3.511650569,2
1.61696E+18,-55.24492505,-0.013789164,8.113843043,2.143527694,2
1.61696E+18,-55.23499316,2.800533805,3.155233378,1.148590774,2
1.61696E+18,-55.22506006,3.291095555,-0.606789836,-0.54578387,2
1.61696E+18,-55.21512695,1.663022644,-4.07483361,-2.317726469,2
1.61696E+18,-55.20519385,-0.904949775,-6.644283116,-3.980154508,2
1.61696E+18,-55.19526196,-3.107482032,-8.086836963,-5.130903922,2
1.61696E+18,-55.1853291,-4.138021011,-9.398346847,-5.34167667,2
1.61696E+18,-55.175396,-3.376818028,-10.45467902,-4.964627318,2
1.61696E+18,-55.16546289,-2.600062671,-11.11967906,-4.14271063,2
1.61696E+18,-55.15553101,-2.306304766,-11.59872397,-2.764181804,2
1.61696E+18,-55.1455979,-2.871203086,-11.71117195,-0.741080233,2
1.61696E+18,-55.13566504,-4.054779249,-10.83667109,0.921978652,2
1.61696E+18,-55.12573315,-4.265190763,-8.872153228,1.025976056,2
1.61696E+18,-55.11580005,-3.554076045,-7.202292847,0.36692178,2
1.61696E+18,-55.10586694,-3.317583749,-5.325673045,0.136864339,2
1.61696E+18,-55.09593384,-3.540503446,-3.1888089,0.127894559,2
1.61696E+18,-55.0860022,-2.774490433,-1.477347512,0.32067923,2
1.61696E+18,-55.07606909,-0.624194559,-0.687293697,0.740079531,2
1.61696E+18,-55.06613599,2.778272874,-0.69122753,1.382040926,2
1.61696E+18,-55.05620435,6.767352447,-1.056475385,1.906905634,2
1.61696E+18,-55.04627124,9.972079047,-2.699146145,2.011521316,2
1.61696E+18,-55.03633813,10.96607956,-4.981696526,1.634697298,2
