time,seconds_elapsed,z,y,x
1617033933972968700,-300.18903125,0.3027928602516651,0.22512685224711892,-0.24148367441669105
1617033933982985700,-300.17901416015627,0.44832770486772056,-0.06918430312424897,-0.5908662902772426
1617033933993002800,-300.1689973144531,0.9602712650775909,0.012794891904294491,-0.8117561625417321
1617033934003019500,-300.15898046875,1.1994260581552982,1.0960559923127293,-0.4348835918070748
1617033934013035800,-300.1489641113281,0.18347849856317042,0.473651823477447,-0.7551764894466847
1617033934023052800,-300.138947265625,-0.9317138636350631,-0.0034168227061629293,-1.712804911865294
1617033934033069600,-300.12893041992186,-0.4816664953678846,1.496316416364908,0.9921791459918021
1617033934043086800,-300.1189130859375,1.120191193398833,2.1549165186971426,0.3303628580920398
1617033934053102800,-300.1088972167969,-0.1795095949321985,0.30435061108767986,-0.7247914341855793
1617033934063119600,-300.09888037109374,-1.5818232009977102,0.36336481785327196,-0.930976635401696
1617033934073136600,-300.08886328125,-1.4720014747977257,1.2586153292268514,-1.3865300537392495
1617033934083153700,-300.0788464355469,-1.4561018948763609,0.9316638870134949,-1.65065635259673
1617033934093169700,-300.0688303222656,-1.376689335465431,-0.30859160965830085,-1.636675319647789
1617033934103186700,-300.05881323242187,1.3681564849197865,-0.055177112820744514,-2.6409131522238254
1617033934113203700,-300.0487963867188,0.2879962731361389,1.6903285839021205,-3.5102672980576752
1617033934123220700,-300.038779296875,-2.54752350538671,2.622316003781557,-4.017845064273477
1617033934133236700,-300.02876318359375,-4.939292969959974,2.6776097287192937,-5.267961445224285
1617033934143253500,-300.01874658203127,-3.1074668341338634,3.2183173188596963,-3.4588059908896684
1617033934153270800,-300.00872924804685,2.732144159722328,4.89034510691762,-0.3414280035942793
1617033934163287600,-299.99871240234376,3.844767548215389,3.5260254236817357,-1.4563158298879861
1617033934173303600,-299.9886965332031,3.3810330153793093,1.2710267747715114,-2.7561343993797895
1617033934183320800,-299.97867919921873,3.7706425738185643,0.6754904468566179,-2.530686644615233
1617033934193337600,-299.96866235351564,4.873340780624747,0.8814195544198155,-1.5068328419432042
1617033934203354000,-299.95864599609376,7.393072023722529,-1.867098816998303,0.6668339699313044
1617033934213370000,-299.9486298828125,8.528899177670478,-4.868535133908689,2.1278572468578814
1617033934223387000,-299.93861303710935,6.945665525352955,-4.638253383116424,1.7692574514493344
1617033934233404000,-299.92859619140626,3.6918285648226736,-0.8941963261455297,0.48123599499613046
1617033934243421200,-299.9185788574219,-0.26786943090856075,4.706047400926053,0.5541966017886996
1617033934253437000,-299.90856298828123,-5.205644397521018,10.229389090102911,2.5135262509778142
1617033934263454000,-299.89854614257814,-0.8250216676324605,10.009870725387334,2.8505808617934583
1617033934273471200,-299.8885288085938,4.014194140550494,3.26420813241899,1.8884376653641461
1617033934283487000,-299.8785129394531,3.7627544509172437,0.4643003500252962,2.2586381744563577
1617033934293504000,-299.86849609375,3.6288042456328866,2.2478017231434584,2.330442596951127
1617033934303521300,-299.8584787597656,2.741185544312,4.498228534093499,1.7328449525922536
1617033934313538000,-299.8484619140625,1.1770493911743163,4.760992750817537,1.0222463674753903
1617033934323554000,-299.83844604492185,0.8354618131041527,4.16756099396646,0.9225807091087103
1617033934333571000,-299.82842895507815,0.8492214583873748,3.3197184227168557,1.3732313039660453
1617033934343588000,-299.8184118652344,0.3304278861522674,2.5244933429330585,1.6425789907336235
1617033934353605000,-299.80839477539064,-0.394264106246829,2.479801968291402,1.3579758671671152
1617033934363621000,-299.79837890625,-1.2317103711664676,2.9196716414153574,0.6832657570332288
1617033934373638100,-299.7883618164062,-2.351447391057014,3.2410546358466146,-0.09907119960486889
1617033934383655200,-299.7783447265625,-3.2850182807356116,3.3662662388801574,-0.8282090654969215
1617033934393672000,-299.768328125,-4.038992481720447,3.060519204998016,-1.293135438466072
1617033934403688000,-299.7583120117188,-4.747869649872183,2.6190456038087606,-1.2494605473905802
1617033934413705200,-299.74829467773435,-5.056712896203995,2.019038267959654,-0.7646592611283063
1617033934423722000,-299.73827807617187,-4.679331535696983,1.3346022981032728,-0.4361737412154674
1617033934433739000,-299.7282609863281,-4.057314320352673,0.9160219351150095,-0.3918704891085624
1617033934443755300,-299.71824462890623,-3.4621067860007284,0.5760922072544694,-0.37346155671477316
1617033934453772000,-299.70822802734375,-2.7890701620370146,0.05268778022304177,-0.7596107455670833
1617033934463789000,-299.6982109375,-2.4816315218061207,-0.11715550315417349,-1.5335165584683417
1617033934473806000,-299.68819384765624,-2.670373055464029,-0.10105360559374094,-2.333260576981306
1617033934483822000,-299.67817797851563,-3.0844594680339097,-0.26462036598473787,-2.873416086196899
1617033934493839000,-299.6681608886719,-3.553663956713676,-0.5999849778868258,-3.0938106492251154
1617033934503855900,-299.65814404296873,-3.941697644138336,-0.9315341231539845,-3.204410374060273
1617033934513873200,-299.648126953125,-3.8502906955510374,-1.0335586196064948,-3.2556594997823236
1617033934523889200,-299.63811083984376,-3.480868185093999,-1.2081386491820216,-3.0926041960448023
1617033934533906000,-299.6280939941406,-3.2543788123220203,-1.5527935058683155,-2.6521231130242344
1617033934543923200,-299.61807690429686,-3.0988141566008327,-1.783145399287343,-2.2000644049346447
1617033934553939200,-299.60806079101565,-2.8290526283353565,-1.8317893109470604,-1.9086615382254122
1617033934563956000,-299.5980439453125,-2.655011820203066,-1.9301529468044638,-1.6548323231071234
1617033934573973000,-299.58802709960935,-2.565636669704318,-1.940109692673385,-1.5380051020592451
1617033934583990000,-299.57801000976565,-2.510102414008975,-1.8324752473846078,-1.4754279421150684
1617033934594006000,-299.5679938964844,-2.3903350478559733,-1.8118325645893811,-1.2841472453683613
1617033934604023000,-299.55797705078123,-2.1511890226066113,-1.8833645998835562,-1.1907646127939224
1617033934614040000,-299.5479599609375,-1.6261457423269747,-1.9637240847557782,-1.1167705713003873
1617033934624057000,-299.5379428710938,-1.11739951685369,-2.0966151363760233,-0.9271732975959778
1617033934634073000,-299.5279270019531,-0.7102718373805285,-2.1775033212974666,-0.5358370614945889
1617033934644089900,-299.51791015625,-0.6531541118860245,-2.089443052789569,-0.15155425103604792
1617033934654107100,-299.5078928222656,-0.683289722430706,-1.847840282037854,0.09565466915965079
1617033934664124000,-299.4978759765625,-0.5577846894085406,-1.7778928855866192,0.28380700475275517
1617033934674140000,-299.48786010742185,-0.4432850345253944,-1.8169722655653953,0.3854290578842163
1617033934684157200,-299.4778427734375,-0.5226800582796335,-1.700678713002801,0.33610943892002104
1617033934694174000,-299.4678259277344,-0.7311427759736776,-1.5279700302571058,0.22845453536510466
1617033934704191000,-299.45780908203125,-0.7746475711792707,-1.4377254034474491,0.14099252501130102
1617033934714207000,-299.44779296875,-0.8623883984744548,-1.5213108646288513,-0.15905249783694744
1617033934724224000,-299.4377758789062,-0.6832967366933822,-1.6850655488073825,-0.5382417845487595
1617033934734241000,-299.42775903320313,-0.27770225813686844,-1.7108029243931173,-0.7853273706257343
1617033934744258000,-299.4177419433594,-0.04074585188627243,-1.7797092873588203,-0.9332225146323442
1617033934754274000,-299.4077258300781,-0.08783844245076179,-1.8899375485330818,-1.046494089025259
1617033934764291000,-299.397708984375,-0.22551322121620176,-1.9350240599721669,-1.08213238863945
1617033934774307800,-299.38769213867187,-0.26915888619720935,-1.9155799393117428,-1.164879060909152
1617033934784323800,-299.37767626953126,-0.411881011480093,-1.845889440231025,-1.4328864389836786
1617033934794341000,-299.3676589355469,-0.44670916375517844,-1.794395107576251,-1.8553566490173339
1617033934804358000,-299.35764208984375,-0.28869886844754217,-1.7613783886373042,-2.16924490377903
1617033934814375000,-299.347625,0.032433950614929194,-1.847269496412575,-2.348169392299652
1617033934824391200,-299.3376088867187,0.8146785527944564,-1.9583155037105082,-2.3808213695794342
1617033934834408000,-299.32759204101563,5.56357403858304,-2.2563129463791847,-2.5705431464463473
1617033934844425000,-299.3175749511719,8.865374527293444,-3.1363831320166584,-2.804237336030602
1617033934854442200,-299.3075578613281,5.052327812987565,-2.1715207397565246,-1.7895155188411473
1617033934864458000,-299.2975419921875,4.66076127526164,-1.6429557150915264,-0.8385878361701965
1617033934874475000,-299.28752490234376,4.547364028662443,-1.4811273228004573,-1.2435644750893116
1617033934884492000,-299.2775080566406,2.462873045322299,-1.0768810439825058,-1.8539456131756304
1617033934894509000,-299.26749096679686,1.0347323395609855,-0.6976368122130632,-1.9010364501744508
1617033934904525000,-299.25747485351565,0.4068266506999731,-0.7486997677132486,-2.084472863161564
1617033934914542000,-299.2474580078125,-0.815664056700468,-0.5608619048967958,-2.3470944565445184
1617033934924559000,-299.23744091796874,-1.832981735602021,-0.7326072955682873,-2.373154780474305
1617033934934576000,-299.227423828125,-1.4018179315030574,-0.731058020299673,-1.8912135598182678
1617033934944592000,-299.217408203125,-1.0548878233611583,-0.6830149971425533,-1.3723761484414339
1617033934954609200,-299.2073908691406,-0.630504473182559,-0.7480433496311306,-0.49703123776018615
1617033934964626200,-299.19737377929687,-0.5070166252017021,-0.1964028620660305,0.41512452344596384
1617033934974642000,-299.1873581542969,-1.5248825856357813,0.7637620200276375,1.1448457421839238
1617033934984659000,-299.1773410644531,-1.0524445218622684,1.2260513224914669,2.9280659602731465
1617033934994676200,-299.16732373046875,-0.16879881582558154,2.2084069936051964,4.666684820091724
1617033935004693000,-299.15730712890627,-2.5234078857839104,2.5922081580266356,7.36392016351819
1617033935014709000,-299.147291015625,0.8961924683988094,2.8156284986168143,7.239512862604856
1617033935024726300,-299.13727368164064,3.871325300273299,4.099391420842707,2.371090249159932
1617033935034743000,-299.12725708007815,2.2305215025186538,1.5680694009333849,1.0866092417925595
1617033935044760000,-299.1172399902344,2.6107413013219833,1.8409113595575093,0.17351181582212447
1617033935054776000,-299.1072238769531,2.873362894704938,1.9321587336689232,-0.9967968689203262
1617033935064793000,-299.09720703125,1.1507213562190532,1.885655341169238,-1.2837199598670006
1617033935074810000,-299.0871899414062,-1.236726153501868,1.5326967665180562,-0.09541735327243804
1617033935084827000,-299.07717309570313,-1.8741946204781532,1.7166402522444724,0.78108315718472
1617033935094843100,-299.06715698242186,-1.9710341155081985,1.3719444790259003,0.6513192976742983
1617033935104860200,-299.0571398925781,-2.2241700876653194,0.7307265963882208,0.3816647369146347
1617033935114877000,-299.047123046875,-2.0309400104165074,0.6424918480962515,-0.5618909556835889
1617033935124894200,-299.03710571289065,-1.2754407918214796,0.26339929975718257,-1.1279869618415832
1617033935134910200,-299.02708984375,-1.0080296260744332,0.23119594302773475,-1.2487965305238962
1617033935144927000,-299.0170729980469,-0.7174655482769012,0.22170096945166587,-0.8958546147465706
1617033935154944000,-299.00705590820314,0.5594920778483152,-0.40601182718574996,0.24549977819025515
1617033935164961000,-298.9970390625,0.9205074099659919,-0.0184630006685853,1.0474649798840283
1617033935174977000,-298.9870229492187,0.04741583116948604,-0.004920213006436825,0.9789648596316576
1617033935184994000,-298.977005859375,-0.1607446887075901,0.5556453392922878,0.5634954682707787
1617033935195011000,-298.9669890136719,0.3752583770036697,0.5519099521562457,0.12422376103997229
1617033935205027000,-298.9569729003906,1.0009060578048228,0.5186819285541773,-0.184943310418725
1617033935215044400,-298.94695556640625,1.1137076765984295,0.14334727144390344,-0.280761645707488
1617033935225061000,-298.93693896484376,1.1298796437203884,-0.28038696717619893,0.234735223069787
1617033935235078100,-298.926921875,0.915169556069374,-0.38958062460571524,0.7476403217881917
1617033935245094400,-298.91690551757813,0.5616723444968462,-0.25330431446135043,0.9906044440209865
1617033935255111200,-298.90688891601565,0.4464993203967809,-0.2644917711690068,1.3327192608356475
1617033935265128200,-298.8968718261719,0.3610550796061754,-0.4529328605756163,1.9083079024821519
1617033935275145200,-298.88685473632813,0.4895931967139244,-0.6287509075134993,2.579959209567308
1617033935285161200,-298.8768388671875,0.640569940122962,-0.5128387554839253,3.1561919943362473
1617033935295178200,-298.8668217773438,0.3466600590288639,0.02401508183777332,3.144886171945929
1617033935305195000,-298.8568049316406,-0.2209457671701908,0.07665332383066416,2.6578859143346545
1617033935315212300,-298.84678759765626,-0.24201544320583343,-0.05385740852430462,2.0510463943779467
1617033935325228300,-298.8367717285156,-0.05551087481975555,-0.11841902028396725,1.0930413206666707
1617033935335245000,-298.8267548828125,0.0653466246575117,-0.3767686354361474,-0.08236907112896442
1617033935345262300,-298.81673754882814,0.5040688813120127,-0.473356201531738,-0.3712807055443525
1617033935355278300,-298.8067216796875,0.7443745979905128,-0.2187538100838661,0.30799685863554477
1617033935365295000,-298.7967048339844,0.9314718715727329,0.10589096262231469,0.9092916039466857
1617033935375312100,-298.78668798828124,0.9939473247081041,0.28521394894123075,1.2742045280247927
1617033935385329200,-298.7766708984375,0.5253448935747146,0.32643896264657374,1.246748950344324
1617033935395345200,-298.7666547851563,-0.09580606032907962,-0.08137604150362313,1.1857330483675002
1617033935405362200,-298.7566379394531,-0.43168636666834354,-0.9489918923027812,1.5559575228571891
1617033935415379200,-298.74662084960937,-0.25470073725581166,-2.9730080948054787,3.0314690516024827
1617033935425396200,-298.7366037597656,-1.6805279053777455,-3.9324905475929377,4.582621220004558
1617033935435412200,-298.726587890625,-6.107160691291093,-4.664598076945543,2.53357272144556
1617033935445429000,-298.71657104492186,-5.238648256978392,-1.379585203037411,-5.873362456810474
1617033935455446300,-298.7065537109375,-1.3431640824824571,-4.196008213032782,-10.474852043414115
1617033935465463000,-298.69653686523435,1.5330670611351727,-6.079463706070184,-8.112063174131512
1617033935475479000,-298.68652099609375,3.5781969249457117,-4.795681202360988,-3.790098384916782
1617033935485496300,-298.6765036621094,3.4977959390193223,-3.7886131147950883,-1.753157672780752
1617033935495513000,-298.66648681640623,1.8741554575115442,-2.1902852075897155,-1.309204529735446
1617033935505530000,-298.65646997070314,0.7296791331619024,-1.1523932349540293,-0.12411562449038029
1617033935515546400,-298.64645361328127,0.5686199716776609,-1.0625869995616375,0.9772077868312596
1617033935525563100,-298.6364367675781,0.5836702412933111,-0.9478561662711202,1.6491595381677149
1617033935535580200,-298.626419921875,-0.7386965523540974,-1.7321992020346224,2.20484754755795
1617033935545596200,-298.61640380859376,-1.7069138080000876,-1.369626557472348,1.3654226760417223
1617033935555613200,-298.60638671875,-1.3435843537211418,-0.6516691340252757,-1.1337252132326363
1617033935565630200,-298.59636987304685,-1.306507545736432,-0.5790449195802212,-2.8188281714409587
1617033935575647200,-298.5863527832031,-0.46926294086873527,-0.49683717649281023,-3.4036271245032546
1617033935585663200,-298.5763366699219,-0.18847966785132883,-0.4875403558373451,-3.3479753799080845
1617033935595680300,-298.56631982421874,-0.7141624150782823,-1.3247034199014305,-1.5235808553874493
1617033935605697300,-298.556302734375,-2.5176380702108143,0.47611558324247594,-0.2528822896569967
1617033935615714300,-298.5462856445312,-6.059187226238846,1.195273030129075,3.0470009672552347
1617033935625730300,-298.5362697753906,-4.914071434941888,1.4923065962016582,3.8415795658290386
1617033935635747000,-298.5262529296875,-5.079299991065263,6.744909144252539,6.187965581843256
1617033935645764000,-298.5162358398438,-1.218790683838725,12.042691727244854,7.755375642085075
1617033935655781400,-298.50621850585935,5.463500968459249,10.42924413844943,1.4321020106077194
1617033935665797000,-298.49620288085936,6.88847298105657,4.4508442671060555,-2.5714544160723687
1617033935675814100,-298.4861857910156,4.125588815155625,5.560424634641409,-0.02660685189664364
1617033935685831400,-298.47616845703124,2.853753938871622,4.94696598880589,2.238150682222843
1617033935695847200,-298.46615283203124,1.513088687467575,2.7194243788808583,0.8915537026822566
1617033935705864200,-298.4561357421875,1.550653571230173,-0.3523579784095287,-0.9545774373501539
1617033935715881200,-298.4461188964844,6.7673126992404455,-2.986040302596986,-2.2005349450558422
1617033935725898200,-298.43610180664064,10.832305883657932,1.7101497211813925,-3.339047392565012
1617033935735914200,-298.42608569335937,0.7545020242512226,17.100288420546054,-3.302611805093288
1617033935745931300,-298.4160688476563,-9.652413378012179,9.880152458584307,-2.8505671255290506
1617033935755948300,-298.4060517578125,-8.893028257894516,-3.651139119298756,0.344580330145359
1617033935765965300,-298.39603466796876,-6.078903149577975,-8.003456084418296,1.555590443110466
1617033935775981300,-298.3860187988281,-4.6590492106467485,-16.19837932806611,1.1862211241453886
1617033935785998000,-298.376001953125,-1.1768009693711996,-16.47192154391408,1.3895254361629485
1617033935796015400,-298.36598461914065,0.5292553450167179,-15.495928978091477,0.09556289922297
1617033935806031000,-298.35596899414065,2.3546739518880844,-14.314047928977011,-0.6923954044282435
1617033935816048000,-298.3459519042969,-0.7290262222111225,-12.514756281530856,-0.6035311260610818
1617033935826065400,-298.3359345703125,-6.91635642876029,-8.559366796648503,-2.0907547199100254
1617033935836082200,-298.3259177246094,-6.981673827323317,-5.127826413825154,-1.1762000808686017
1617033935846098200,-298.3159018554687,-9.506190551131963,0.797702283552289,3.5840351295799016
1617033935856115200,-298.305884765625,-18.20078064174056,12.459372832483053,11.249508382421732
1617033935866132200,-298.29586767578127,-3.644133916711807,18.782003489881753,10.335307963645457
1617033935876149200,-298.2858508300781,24.548074615752697,11.079766732788086,6.866003375095128
1617033935886165200,-298.27583471679685,14.752646266990899,3.324028687131405,12.342563147091864
1617033935896182300,-298.26581762695315,5.983841770136356,-2.339952183574438,9.869901113682985
1617033935906199300,-298.25580078125,3.118752198258042,-4.752959081965685,5.8585062484621995
1617033935916216000,-298.24578393554685,0.7662468225806951,-4.567371043902635,5.074425078505278
1617033935926232000,-298.23576782226564,0.8375234218090772,-6.2540650706946845,5.319413400042056
1617033935936249300,-298.2257507324219,-5.8281070185452695,-7.047685053369403,6.65631842212975
1617033935946266000,-298.21573388671874,-21.0691616563797,-15.29418592404127,2.686481309700012
1617033935956282000,-298.2057177734375,-20.633388897180556,-13.74309980661273,-0.2893383353948593
1617033935966299400,-298.19570068359377,-8.25595142058432,0.07054360877871513,0.23694588485658166
1617033935976316200,-298.1856838378906,18.659559013473988,12.026706222605705,-3.9700317582190032
1617033935986333200,-298.17566674804686,24.93156539905071,6.341307300817966,-8.30153360658586
1617033935996349200,-298.16565087890626,2.1757798585057255,-0.5623427911043167,-7.174291325631737
1617033936006366200,-298.1556337890625,0.7947475253999233,3.113282242414355,-4.201163988360762
1617033936016383200,-298.14561669921875,-1.7863450721114873,2.3491601569026708,-1.0492325740784405
1617033936026400000,-298.13560009765627,-4.594509226197004,-0.5190519309103488,0.859527163824439
1617033936036416300,-298.1255837402344,-3.335338016653061,-1.6824083122968674,1.081261451023817
1617033936046433300,-298.11556665039063,-0.724571580889821,-0.6275561447709799,0.8893547313332557
1617033936056450000,-298.10555004882815,0.9399731579363345,-0.04440437439382076,-0.583217236828804
1617033936066466000,-298.0955339355469,1.5659154377698898,-0.025835867524147033,-2.0332348433554173
1617033936076483300,-298.0855166015625,0.5198568175524473,-0.470360088455677,-2.024792593702674
1617033936086500000,-298.0755,0.3388742274582386,-1.01562665707469,-1.5221499458014964
1617033936096517000,-298.0654829101563,0.41592122678160665,-1.9265274497836826,-1.058566219612956
1617033936106533400,-298.0554665527344,0.10249415979087352,-2.4155413853049277,-0.7164858895897865
1617033936116550100,-298.04544995117186,-0.48490708472430705,-0.7272329090535641,-0.7998895644634961
1617033936126567200,-298.0354328613281,-1.1396855829417705,2.1048691699802875,-0.5355284339368344
1617033936136583200,-298.0254167480469,-1.8778531429857015,4.269743603590131,0.2897761422902346
1617033936146600200,-298.01539990234374,-0.6356435896366834,5.32630783573091,1.0158476063489914
1617033936156617200,-298.0053828125,0.5002414319783449,4.627727020666003,1.583121424114704
1617033936166634200,-297.99536572265623,0.0902384893298149,0.12430325601696968,1.4326649051874876
1617033936176650200,-297.98534985351563,0.9422574694812297,-14.218720592075586,0.5488485187590122
1617033936186667300,-297.9753327636719,-1.0594646297574042,-8.9579399982661,2.276703992500901
1617033936196684000,-297.9653159179687,-3.242743904107809,1.3141045767366886,1.825967472925782
1617033936206704600,-297.9552954101562,-0.6203051507294177,-1.1988216625213621,0.02119827085137367
1617033936216720600,-297.945279296875,0.5810784712344408,-0.9232336200594902,-1.0186246698468924
1617033936226737400,-297.9352626953125,-0.8405641046792268,0.9465975445121526,-1.2929483914613722
1617033936236754700,-297.9252453613281,-2.446611646351218,-0.038621114817261694,-1.5623440090239047
1617033936246770700,-297.9152292480469,-1.5367115551173687,-0.2633148363441229,-1.6996406021267174
1617033936256787500,-297.90521264648436,0.20305062951743602,2.101789324143529,-0.7129962939083576
1617033936266804700,-297.8951953125,0.7910287971377372,2.4464210922151803,0.051820203608274454
1617033936276821500,-297.8851784667969,-0.8479320030987262,2.4839129107415676,-0.32865181639045477
1617033936286837500,-297.87516259765624,-1.2662339875370263,2.426685879653692,0.058193245771527284
1617033936296854500,-297.8651455078125,-0.6038631344944239,2.2761656478404997,0.46989860842376946
1617033936306871600,-297.85512841796873,-0.8960305558353662,2.0879285565733907,0.31651714196056124
1617033936316888600,-297.845111328125,-0.5245920293807983,-0.09076981972754002,1.5523025074809789
1617033936326904600,-297.83509545898437,-4.310417559283971,-0.16219781012535095,-1.7155600557923316
1617033936336921600,-297.8250783691406,-5.236826886770129,1.8394418715268372,-2.1836790873229504
1617033936346938600,-297.81506127929686,3.6190912453919646,2.9664678793817756,4.082075836643576
1617033936356954600,-297.80504541015625,6.512119794553518,-1.6217501377165318,4.817969606536627
1617033936366971400,-297.7950285644531,-4.920096102058888,-2.896259201645851,-2.743539413961768
1617033936376988700,-297.78501123046874,-3.0975457441002128,-1.6748270633876323,-0.5234422748237848
1617033936387005400,-297.77499462890626,3.071905691409111,0.3968313263863325,1.1130138491153716
1617033936397021400,-297.764978515625,-1.0568477252572774,1.125930029311776,0.04628361226916313
1617033936407038700,-297.7549611816406,0.3126490683555603,1.8945704690307377,1.836464024759829
1617033936417055500,-297.74494458007814,-0.12118892338871955,0.8158516882270574,0.6735846132352947
1617033936427071500,-297.7349284667969,-1.3191770576953887,1.2690233259946107,1.0731985560774802
1617033936437088500,-297.7249113769531,-0.6844312936812639,1.1928098548859356,1.4860378911957144
1617033936447105500,-297.71489453125,-0.6486041934967041,0.46664662089049813,0.9872954656034707
1617033936457122600,-297.70487744140627,0.3174327955007553,0.6688894411563873,1.2048147654563188
1617033936467138600,-297.694861328125,0.30612171241343017,0.2913023289442062,1.5000573564589024
1617033936477155600,-297.68484448242185,0.25813421883583065,-0.04097966064214706,1.6613260690405964
1617033936487172600,-297.67482739257815,0.6774819129347801,0.30574469579458236,1.2692606418818235
1617033936497188600,-297.6648112792969,0.6653308718919754,0.995323873758316,1.181216447725892
1617033936507205400,-297.6547946777344,1.0835504387438297,1.2932260393589734,-0.0796706258252263
1617033936517222700,-297.64477734375,0.1686047545582056,0.08140402548909187,-1.3002742043048143
1617033936527239700,-297.6347602539062,0.34156069006323814,2.395333879056573,0.4590075043141842
1617033936537255400,-297.6247446289062,-1.0005313792735337,2.635024094185233,0.7407067231327294
1617033936547272700,-297.61472729492186,-0.7518944721013308,1.3567875341653823,0.9394652084141969
1617033936557289700,-297.6047102050781,-0.47725277057886123,1.3919523710489272,0.9657987963274121
1617033936567306500,-297.5946936035156,-0.7558505162507295,2.031060421925783,1.079730295933783
1617033936577322500,-297.58467749023436,-1.1279489679187535,2.5832652653753754,1.1926298221439122
1617033936587339500,-297.5746604003906,-1.250973290041089,2.8691350478768345,1.7234581155657767
1617033936597356500,-297.5646435546875,-1.243666181898117,2.7623043201863764,1.6806249360114336
1617033936607372500,-297.55462744140624,-0.5327624763548374,2.03386378890872,1.5380416346773504
1617033936617389600,-297.5446103515625,0.7022744088858366,1.3118038985788822,0.9264151727050542
1617033936627406600,-297.5345935058594,-0.6961503730475902,1.1279150656491517,-0.12761632608771323
1617033936637423600,-297.52457641601563,-0.08416764498353003,-0.03493862691223621,1.25771370421201
1617033936647439400,-297.514560546875,0.08763035265803337,-0.7465496039420366,0.992886417478323
1617033936657456600,-297.5045434570313,-0.1737462090998888,-1.7884470128268002,0.7752385228097438
1617033936667473700,-297.4945263671875,0.5428869800060987,-3.385136943566799,-0.5263111082583666
1617033936677489400,-297.48451049804686,-2.6893226706057787,-3.538489183935523,-1.0270029143527148
1617033936687506700,-297.4744934082031,-2.8562779043912885,-4.37112541822493,-0.6888762903913855
1617033936697523700,-297.4644763183594,-2.154042658472061,-3.790298291403055,-0.5017527133241295
1617033936707540500,-297.45445947265625,-1.7162100441336632,-1.9080209022343158,-0.5915764843732119
1617033936717556500,-297.44444360351565,-0.24353929177224634,-2.138697789824009,-0.9713424019291996
1617033936727573800,-297.43442626953123,-0.780516170951724,-0.871071471145749,-1.370104111856222
1617033936737590500,-297.42440942382814,0.42355391361713407,-0.7156500232875347,-1.5839900236427784
1617033936747607600,-297.4143923339844,0.8622773393154144,-0.5344084899961948,-1.657009374885261
1617033936757623600,-297.4043764648437,1.4001912070840596,-1.087943705266714,-1.109488597598672
1617033936767640600,-297.394359375,0.25176935997903344,-1.0533096142590046,-0.7656149544179439
1617033936777657600,-297.38434228515627,-0.1307253980189562,-0.11865209838747978,-0.44495530582517384
1617033936787673600,-297.3743264160156,-0.48000937581062314,-0.12454817068874835,-0.0383767846673727
1617033936797690600,-297.36430932617185,-1.9475053558826445,1.1789479182720184,-1.2286729031667112
1617033936807707600,-297.35429223632815,-0.2713485051959753,0.6720113725692033,-0.7478402282744646
1617033936817724400,-297.3442756347656,-0.08288754204511642,0.5284451976776122,-0.3139727181747555
1617033936827740700,-297.33425927734373,-0.013334113347530364,0.0538964253604412,0.17048399243354798
1617033936837757700,-297.3242421875,-0.19925123723447322,-0.3163695501834154,0.1925561235100031
1617033936847774500,-297.3142255859375,-0.4118927019178867,-0.24285832377076147,-0.33399902263730763
1617033936857790500,-297.3042094726562,-0.28799451957046984,-0.2309311546117067,-0.44188919625282286
1617033936867807700,-297.29419213867186,-0.3236246358782053,-0.3052262248784304,-0.30491935088634486
1617033936877824500,-297.2841755371094,-0.38216859478354454,-0.2647381471455097,-0.07466273453533649
1617033936887841500,-297.2741584472656,-0.3760772921711206,-0.15296411783397196,0.1787041237682104
1617033936897857800,-297.26414208984374,-0.3113490916728973,0.016993220376968383,0.3526239358693361
1617033936907874600,-297.25412548828126,-0.17870646185576913,0.13626023579239843,0.36897681251615283
1617033936917891600,-297.2441083984375,-0.04051964191496372,0.170866269749403,0.302213014537096
1617033936927907600,-297.2340925292969,0.01704173569381237,0.11335808363258838,0.2102320654541254
1617033936937924600,-297.22407543945315,0.0005371756166219711,0.019110358661413192,0.13989420838057995
1617033936947941600,-297.2140583496094,0.0053033671051263805,-0.027709844702482223,0.0756228117391467
1617033936957958700,-297.20404125976563,0.03500058623254299,0.005907178217172623,0.03215747176110744
1617033936967974700,-297.194025390625,0.039077626413106914,-0.00433656789958477,0.009430091646313667
1617033936977991700,-297.1840083007813,-0.009917582902312278,-0.11468787093162536,-0.04434416863918304
1617033936988008400,-297.1739914550781,-0.044801849278807634,-0.2777490198880434,-0.11289631133973597
1617033936998025700,-297.16397436523437,-0.111283030924201,-0.42073710263073444,-0.22576485788971185
1617033937008041700,-297.1539582519531,-0.07530161696076393,-0.43481238973438735,-0.24398966588824986
1617033937018058500,-297.14394140625,-0.13267653208673,-0.3390793946415186,-0.18023089494407177
1617033937028075800,-297.13392431640625,-0.21851298706531525,-0.18899463163614272,-0.10345336021184921
1617033937038091800,-297.123908203125,-0.249466928255558,-0.09636310968995093,-0.09290975436568259
1617033937048108500,-297.1138913574219,-0.20553192493915556,-0.09035480918586254,-0.1790355476796627
1617033937058125600,-297.10387451171874,-0.08059796980321407,-0.13133388530611992,-0.27695553142279383
1617033937068142600,-297.093857421875,-0.0033154081583023068,-0.1813181056588888,-0.37404549408257004
1617033937078158600,-297.0838413085938,0.030512627163529395,-0.24913258173465727,-0.5528051474303006
1617033937088175600,-297.0738244628906,0.045480479192733764,-0.27297172248363494,-0.7233926002383232
1617033937098192600,-297.06380737304687,0.000772153416275978,-0.2584299869120121,-0.7920777216687798
1617033937108208600,-297.0537912597656,-0.10304770202040672,-0.2524918290346861,-0.705574619475007
1617033937118225700,-297.0437744140625,-0.21523381926417348,-0.2080056215763092,-0.4902040220886469
1617033937128242400,-297.03375756835936,-0.3625964638292789,-0.1898877810835838,-0.30346301459819075
1617033937138259700,-297.023740234375,-0.4571878876715898,-0.21605448799729346,-0.21109598880708216
1617033937148275700,-297.0137243652344,-0.5046253461509943,-0.23644319603145122,-0.18671558078825473
1617033937158292500,-297.00370751953125,-0.396013580262661,-0.22319500740170478,-0.16649053888320922
1617033937168309800,-296.9936901855469,-0.27889059113860126,-0.2612427062451839,-0.18005699968189
1617033937178325800,-296.9836743164062,-0.2397510054051876,-0.33225743966698645,-0.16918167766332626
1617033937188342500,-296.97365747070313,-0.2692074015140533,-0.4205740210235119,-0.08736147258877754
1617033937198359600,-296.9636403808594,-0.3238549375027418,-0.4475619811922312,0.012544424274563789
1617033937208373500,-296.95362646484375,-0.37866380153298373,-0.4163204552322626,0.05900310084968805
1617033937218389500,-296.94361059570315,-0.3381920904129743,-0.3154822459548712,0.15318857423961163
1617033937228406500,-296.9335935058594,-0.29098317999243734,-0.16233283468186854,0.2628200385645032
1617033937238423600,-296.92357641601564,-0.2954758152365684,-0.023726912546157837,0.3964157313227653
1617033937248440600,-296.9135593261719,-0.2738099268734455,0.16745558452308176,0.610011720252037
1617033937258456600,-296.9035434570313,-0.3246387813568115,0.25367080968618394,0.743188018554449
1617033937268473600,-296.8935263671875,-0.4124035740494728,0.20224340478777883,0.7583429175883531
1617033937278490600,-296.88350927734376,-0.3451888174325228,0.17760113096237182,0.7617766914293169
1617033937288506600,-296.8734934082031,-0.27856910409927366,0.15954291170239449,0.6655395462065935
1617033937298523400,-296.8634765625,-0.2569762809723615,0.0967091466486454,0.4449842396587133
1617033937308540700,-296.85345922851565,-0.20254910973608492,0.03488718898594379,0.2534013450950384
1617033937318557400,-296.8434426269531,-0.14493746324479578,-0.05912263557612896,0.13945464791953563
1617033937328573400,-296.8334265136719,-0.19858312871456146,-0.2741986339300871,0.016409283009171483
1617033937338590700,-296.8234091796875,-0.19430559752583504,-0.4832213235944509,-0.125897247210145
1617033937348607500,-296.813392578125,0.03175941235423088,-0.2232943761229515,0.014525368958711623
1617033937358623500,-296.8033764648437,0.2749672802150249,0.4529360754460096,0.5631318956553936
1617033937368640500,-296.793359375,0.20981939300000665,0.6095803430974484,0.8120233621105551
1617033937378657500,-296.7833425292969,0.254955588799715,0.5845511157810688,0.7904930828258395
1617033937388674600,-296.7733254394531,0.3469032201349735,0.5602256528198719,0.7470458630263805
1617033937398690600,-296.76330932617185,0.27622517132163044,0.3557674945920706,0.48140696764886376
1617033937408707600,-296.75329248046876,0.24764964970052242,0.039867900007963177,0.13373363992422818
1617033937418724600,-296.743275390625,0.13553659769296644,-0.24172552034854888,-0.15977613593637943
1617033937428740600,-296.73325927734373,-0.02339782672226429,-0.40001229451000686,-0.34256460640877484
1617033937438757400,-296.72324267578125,-0.11608780085742473,-0.37605040416419505,-0.34264439364671706
1617033937448774700,-296.7132253417969,0.012357377269864082,-0.13514730611443518,-0.13108721706867218
1617033937458791400,-296.70320849609374,0.12970774540901184,0.14496844290494917,0.14088731107115746
1617033937468807400,-296.69319262695313,0.3276940772742033,0.3709463590234518,0.34366116947382686
1617033937478824700,-296.68317529296877,0.5743295814961195,0.4635930785387754,0.48952889930605886
1617033937488841500,-296.6731584472656,0.6596019728511572,0.37784956254065033,0.43657180062234396
1617033937498857500,-296.663142578125,0.477872363781929,0.1318529407441616,0.22125994768589732
1617033937508874800,-296.6531252441406,0.11270692624747752,-0.21033786391615866,-0.05581891785562038
1617033937518891500,-296.6431083984375,-0.07753273701369762,-0.41077743415236473,-0.15800620365440846
1617033937528908500,-296.63309155273436,-0.18421850327551365,-0.5457423694372177,-0.14766250429451463
1617033937538924500,-296.62307543945315,-0.2887462147206068,-0.5380529839783906,-0.2214987248778343
1617033937548941600,-296.6130583496094,-0.2944271829664707,-0.2746381943911314,-0.3148351802229881
1617033937558958600,-296.60304150390624,-0.32053602221310135,0.07411679109036921,-0.37215865742266174
1617033937568974600,-296.593025390625,-0.4927069448202848,0.2807312505692243,-0.28343291074335575
1617033937578991600,-296.5830083007813,-0.6880471460908651,0.21783201906383037,-0.039351767179369924
1617033937589008600,-296.5729914550781,-0.7055161672860384,0.04726911617517471,0.21006547671556472
1617033937599025400,-296.562974609375,-0.641088411039114,-0.06174187816381454,0.35178047078251834
1617033937609041400,-296.55295849609377,-0.5229004230320453,-0.07888181353509426,0.27253508463203907
1617033937619058700,-296.54294140625,-0.3373819430738687,-0.034067104774713516,-0.07557634224891663
1617033937629075500,-296.53292456054686,-0.14108020329475401,-0.07902385235428809,-0.5234688705697655
1617033937639091500,-296.52290844726565,-0.1452554431527853,-0.2882686603367329,-0.8662003579780458
1617033937649108700,-296.5128913574219,-0.2992717003881931,-0.6021884792804718,-0.9508552019566296
1617033937659125500,-296.50287451171874,-0.4812567455232143,-0.9054349285185337,-0.8459434596300125
1617033937669142500,-296.492857421875,-0.5740408276826143,-1.0767495265573264,-0.6885738003134727
1617033937679158500,-296.4828415527344,-0.6037450610727071,-0.9591068974733352,-0.6076853231310844
1617033937689175600,-296.4728244628906,-0.5360802226006984,-0.5937520748466253,-0.5785200189232826
1617033937699192600,-296.46280737304687,-0.4152963728815317,-0.2366968785315752,-0.5494833095312118
1617033937709208600,-296.45279150390627,-0.2760854705899954,-0.08775017964541912,-0.5284992659524083
1617033937719225600,-296.4427744140625,-0.11837795762121676,-0.06731529438197613,-0.5004021754980087
1617033937729242600,-296.43275732421876,0.07124678861200809,-0.1889209818780422,-0.5776610640063882
1617033937739259400,-296.4227407226563,0.30088848793506623,-0.43527007037401194,-0.723068482850492
1617033937749275400,-296.412724609375,0.5013625449627638,-0.6252081203401089,-0.9353571885734796
1617033937759292700,-296.40270727539064,0.527322915649414,-0.8246019809156656,-1.2557505874454975
1617033937769309400,-296.3926906738281,0.5499684626996517,-0.9689064069539308,-1.4915624998360872
1617033937779325400,-296.3826745605469,0.6343932973146438,-1.1478127752959728,-1.5557114391416311
1617033937789342700,-296.3726572265625,0.5518535457938909,-1.0495692586869,-1.5570198913916944
1617033937799359500,-296.362640625,0.3598047872841358,-0.7493453721404075,-1.4954767506703734
1617033937809376500,-296.3526235351562,0.21881167775094507,-0.5917834051221609,-1.4134399802356958
1617033937819392500,-296.342607421875,0.23330782061517238,-0.3730903853148222,-1.2200690332114696
1617033937829409500,-296.33259057617187,0.564287495431304,-0.12077800450026989,-0.8871353017181157
1617033937839426600,-296.3225734863281,0.595464723983407,0.1820025807917118,-0.55648062107265
1617033937849442600,-296.3125573730469,0.6719575965553521,0.33212183058857914,-0.15191899269521236
1617033937859459600,-296.30254052734375,0.66319619795084,0.32673838398456573,0.06356734002530574
1617033937869476600,-296.2925234375,1.022226493731141,0.2668278129011392,0.18660510615110396
1617033937879493400,-296.2825065917969,1.1003998667359352,0.44120121398866174,0.31421500249803064
1617033937889509400,-296.27249072265624,0.8428308805674314,0.6470937889337539,0.5675330532237887
1617033937899526700,-296.2624733886719,0.49552960102558136,0.45603228789567946,0.9087152653634548
1617033937909543400,-296.25245654296873,0.12313187415003776,0.38763153636455533,0.9796753459885715
1617033937919559400,-296.2424406738281,-0.6381710622876883,0.5393892010182142,0.9261211581945419
1617033937929576700,-296.23242333984376,-0.9874924494802951,0.5547872611582279,1.1130649947807192
1617033937939593500,-296.2224064941406,-1.0668594161838292,0.7204056933820248,1.4071625074014067
1617033937949610500,-296.21238940429686,-0.9487515076756476,0.8239818031907081,1.5835066240400075
1617033937959626500,-296.20237353515626,-0.6691419546127318,0.7136638179063797,1.4115154419139027
1617033937969643500,-296.1923564453125,-0.3823492120474577,0.5520739105463027,0.9664400168403983
1617033937979660500,-296.18233935546874,-0.3224555920988321,0.5829670614600181,0.6040694707214832
1617033937989676500,-296.17232348632814,-0.3249006471633911,0.5563052645057439,0.1889458240583539
1617033937999693600,-296.1623063964844,-0.34392566562891,0.3553706042289734,-0.17578823632150886
1617033938009710600,-296.1522893066406,-0.3611041794449091,-0.002483048987388611,-0.4615446215763688
1617033938019727400,-296.14227270507814,-0.41078970911204815,-0.4321019617319107,-0.6863727831378579
1617033938029743400,-296.1322565917969,-0.6054249769836664,-0.8053852392703295,-0.6908052126273513
1617033938039760600,-296.1222392578125,-1.2894757469147442,-0.87244977376163,-0.7497405089378356
1617033938049777400,-296.11222265625,-1.3332137663543224,-0.7196130816996097,-0.3870665959581733
1617033938059793400,-296.10220654296876,-1.5908283452302217,-0.28374153830111026,0.14468202717900275
1617033938069810700,-296.0921892089844,-1.6802034957289695,-0.15869535496234893,0.4600818555474281
1617033938079827500,-296.08217260742185,-1.5774585760474205,-0.176735454043746,0.46172962275445456
1617033938089844500,-296.07215551757815,-1.5433400333464145,-0.13096505199372768,0.16489537864625453
1617033938099860500,-296.0621394042969,-1.3857903412878512,-0.19905249979197978,-0.1280570555925369
1617033938109877500,-296.05212255859374,-1.2701432699352502,-0.23177812682986257,-0.32402970954775806
1617033938119894500,-296.04210546875,-1.1504553987592459,-0.2560778708279133,-0.42186756796538827
1617033938129910500,-296.03208935546877,-0.8674000891566276,-0.2775964596748352,-0.4739198267638683
1617033938139927600,-296.0220725097656,-0.6929127063006162,-0.12056056235730647,-0.6031412499606609
1617033938149944600,-296.01205541992186,-0.5311714077711105,0.06624795741140842,-0.6856906460925937
1617033938159961300,-296.0020385742188,-0.28587328963279723,0.08094634484946728,-0.7507379955425858
1617033938169977300,-295.9920227050781,-0.38638065952062606,0.019593758264183997,-0.8164020155861973
1617033938179994600,-295.98200537109375,-0.544811226066947,-0.22792028235793113,-0.8646841081961989
1617033938190011400,-295.9719885253906,-0.8199152844041585,-0.42125031284987924,-1.0151900192230938
1617033938200027400,-295.96197265625,-0.7071054823040962,-0.7113771682739257,-1.0940919987633824
1617033938210048800,-295.951951171875,-0.46044659720659253,-0.742611679971218,-1.180267184177041
1617033938220065500,-295.9419345703125,-0.2690653626948595,-0.44872927140593527,-1.2722668379604816
1617033938230082600,-295.93191748046877,0.05019114110171795,0.10767010112404822,-1.378493170017004
1617033938240098600,-295.9219013671875,0.43855274530649185,0.9240858529746532,-1.5267153540208935
1617033938250115600,-295.91188452148435,0.7119079141497612,1.9110592470169065,-1.662263057629764
1617033938260132600,-295.90186743164065,0.9148422238111495,2.7288585621804,-1.5918135568752885
1617033938270148600,-295.8918513183594,1.186020633137226,3.127907564616203,-1.3137144083753227
1617033938280165600,-295.88183447265624,1.2260440159678458,3.5717882269471883,-1.0536720178306103
1617033938290182700,-295.8718173828125,1.4668588512122631,4.108793163177371,-0.6401639896705746
1617033938300199400,-295.8618005371094,1.7975497722148894,4.931408938711881,-0.12213321850150823
1617033938310215400,-295.85178466796873,2.209448319351673,5.788793829810619,0.251100666937232
1617033938320232700,-295.84176733398436,2.5424644684314726,6.475609388279914,0.29942250703573225
1617033938330249500,-295.8317504882813,2.668210324472189,6.793578774875402,0.14037410085201263
1617033938340265500,-295.8217346191406,2.366554943817854,6.448425028756261,-0.16415829654335976
1617033938350282800,-295.81171728515625,1.8104162680506706,5.477013360983133,-0.44555473302304743
1617033938360299500,-295.8017004394531,1.3332920922875404,4.034091265675425,-0.655695028540492
1617033938370315500,-295.7916845703125,0.500588053458929,2.7730004862457514,-1.0983426419451832
1617033938380332500,-295.78166748046874,-0.03609305764436722,1.5878040289729833,-1.515759367981553
1617033938390349600,-295.771650390625,-0.9929892933309078,0.796294170320034,-2.176351520913839
1617033938400366600,-295.7616333007812,-1.8634511081457137,-0.23700258347988126,-2.492127489118278
1617033938410382600,-295.7516174316406,-2.9016894100010395,-0.7931599639475345,-2.388440320150554
1617033938420399600,-295.74160034179687,-3.2721032695829866,-0.6683844142436981,-2.164345149038732
1617033938430416600,-295.7315832519531,-2.9871488483607767,0.055931146058440205,-2.0713380717784164
1617033938440432600,-295.7215673828125,-1.6921137137532234,0.08599369136691093,-1.5111515819251538
1617033938450449400,-295.71155053710936,-1.3934604375243187,1.1540239048957823,-1.1524518332734703
1617033938460466700,-295.701533203125,-0.8913257391452789,1.607879433274269,-0.6903814342573285
1617033938470483500,-295.6915166015625,-0.8189210126698017,1.3818658613204955,0.19191256490945816
1617033938480499500,-295.68150048828124,-1.6991852595746517,0.8961234948158263,0.61729837012887
1617033938490516700,-295.6714831542969,-1.9767536621987818,0.006741875475645065,0.7723311109304427
1617033938500533500,-295.6614665527344,-2.3824597844362256,-0.34635201599299903,0.7075561486810445
1617033938510549500,-295.65145043945313,-2.9428970341801644,-0.7926847476512193,1.03661713039428
1617033938520566500,-295.64143359375,-3.087052991658449,-1.526069165071845,1.3781713907167314
1617033938530583600,-295.6314165039062,-2.578915253472328,-1.992904586532712,1.5235533828586338
1617033938540600600,-295.6213994140625,-1.8064941261708736,-2.314747015169263,1.7396213148593902
1617033938550616600,-295.61138354492186,-1.756412290662527,-2.4185879133939743,1.9063276884503662
1617033938560633600,-295.6013664550781,-1.8639561350584029,-2.391070376393199,2.0395796823374925
1617033938570650600,-295.59134936523435,-1.6905448570013046,-2.1999942623078823,1.9526270828105508
1617033938580666600,-295.58133349609375,-1.6213129153430461,-1.9997703806489704,1.8503787144742905
1617033938590683600,-295.57131640625,-1.6113842265248297,-1.8265367972463369,1.9641560464322565
1617033938600700700,-295.56129931640623,-1.7370424042820929,-1.7304671175450086,2.069561417494714
1617033938610716700,-295.55128344726563,-2.1296716028034686,-1.6350968182846903,2.0875964020095763
1617033938620733400,-295.5412666015625,-2.313468665796518,-1.5819854058220981,2.1865411987558008
1617033938630750700,-295.5312492675781,-2.043557499927282,-1.6902993578076362,2.1317596611239016
1617033938640767500,-295.521232421875,-1.448679051399231,-1.766742253758013,2.0251231408312917
1617033938650783500,-295.51121655273437,-1.235881519371271,-1.8058482294827698,1.8382434555225073
1617033938660800800,-295.50119921875,-1.1856079606831074,-2.1384429382801056,1.7863779514677822
1617033938670817500,-295.49118237304685,-0.75971011428833,-2.323551083871722,1.7964916414640844
1617033938680833500,-295.48116650390625,-1.034962641185522,-2.247210771512985,1.3995574392251668
1617033938690850600,-295.4711494140625,-1.4633213247358798,-2.219951885448396,0.9162259332545101
1617033938700867600,-295.46113232421874,-1.1356757627785206,-2.3806433826640245,0.6463469160892069
1617033938710884600,-295.45111547851565,-0.8068050429403781,-2.740389425498247,0.897511734303832
1617033938720900600,-295.4410993652344,-0.8853226993381976,-3.30353155028671,1.0357666510447858
1617033938730917600,-295.4310822753906,-0.6074059216678143,-3.8085853509828445,0.8693281346097588
1617033938740934700,-295.4210654296875,-0.057550856214761734,-3.6326106521785255,0.19582754639610647
1617033938750950700,-295.41104931640626,0.38454993696212764,-2.6782316600099203,0.030556174044311046
1617033938760967400,-295.4010324707031,0.48988311957120895,-1.3991045808911322,0.5350147853262722
1617033938770984700,-295.39101538085936,-0.10673603514432907,-0.13686433916538954,1.0063934031747281
1617033938781000700,-295.38099926757815,-1.1947650806069374,0.2612134801506996,1.60801285039559
1617033938791017500,-295.370982421875,-1.7623849353313445,-0.07986790196299552,1.7665549144923687
1617033938801034800,-295.36096533203124,-1.3927087423741817,-0.3402007998868823,1.6686472057089208
1617033938811051500,-295.35094848632815,-0.7607610846459865,-0.5336749150246382,1.8828711172781885
1617033938821067500,-295.3409323730469,-0.1329682085096836,-0.7271151278927922,2.1614500121191145
1617033938831084500,-295.33091552734373,0.3009890257000923,-0.9207128694102168,2.166599649967253
1617033938841101600,-295.3208984375,0.7309270873963832,-1.1162348569884895,1.7458787678189576
1617033938851117600,-295.31088232421877,0.7886474549591541,-1.3298507196620106,0.9213196031317115
1617033938861134600,-295.3008654785156,0.5651520033061505,-1.796203910563886,0.42279695776998993
1617033938871151600,-295.29084838867186,-0.08771569285392761,-2.30500683466047,0.6370787370063364
1617033938881168600,-295.2808312988281,-0.502160417342186,-2.743418125669658,1.0904865216173232
1617033938891184600,-295.2708154296875,-0.32857845889329906,-3.232647165246308,1.1398511487670242
1617033938901201400,-295.26079858398435,0.5535059891760349,-2.912559179061651,1.24126408919245
1617033938911218700,-295.25078125,0.6612006402194499,-3.3584164021626113,0.5010758369758724
1617033938921234700,-295.2407653808594,1.4358148936510085,-2.104619579133391,-0.019463994404673574
1617033938931251500,-295.23074853515624,1.521186653727293,-0.6733557729154824,-0.10720219135135411
1617033938941268700,-295.2207312011719,2.2159809359908103,0.5258183563053608,0.43195524673759933
1617033938951285500,-295.2107145996094,2.00225167607069,1.6906401340693233,-0.47895343701690435
1617033938961301500,-295.2006984863281,1.5800748960256576,2.8748288756042717,-1.8216934488683938
1617033938971318500,-295.19068139648436,2.3649556919276713,3.5548102041393514,-3.65920669042021
1617033938981335600,-295.1806645507813,3.9539983227849005,2.99846343857944,-4.637420731684565
1617033938991351600,-295.1706484375,2.73499428845644,1.83022396132648,-2.804963312217593
1617033939001368600,-295.16063134765625,0.6062216803193092,-0.30166707109212876,0.04251271542832255
1617033939011385600,-295.1506145019531,-0.22683891686201094,-2.287793541792035,1.6974955529220401
1617033939021401600,-295.1405983886719,0.05213233829736709,-3.2419594757318495,1.6115240733869374
1617033939031418600,-295.13058129882813,1.3077917403280734,-2.8804858784526584,1.2269625921174883
1617033939041435400,-295.12056469726565,1.359555829834938,-2.470883333298564,0.9067175156749785
1617033939051452700,-295.1105473632812,-0.12155951026678084,-2.574631292542815,1.2138710553541778
1617033939061468700,-295.10053125,-0.40342064164876934,-3.07317527295351,1.342653210350871
1617033939071485400,-295.0905146484375,-0.5898889696776867,-3.47859030328989,1.4708756856381893
1617033939081502700,-295.0804973144531,-0.5839373677968979,-3.4988492474645376,1.515764920939505
1617033939091518700,-295.0704812011719,-0.6732464673221111,-3.05991539388597,1.2563963380031287
1617033939101535500,-295.06046459960936,-0.5075403568148613,-2.6924650602847335,0.9568788461603224
1617033939111552500,-295.0504475097656,-0.16482231341004372,-2.5414474003434178,0.5868921259492635
1617033939121569500,-295.04043041992185,0.23890812484025953,-2.4570418549507855,0.028590719190239904
1617033939131585500,-295.03041455078124,0.558518848901987,-2.3796143318772316,-0.24071809687167406
1617033939141602600,-295.0203974609375,0.9758873518824577,-2.0788053389191625,-0.42225773632675406
1617033939151619600,-295.01038037109373,0.9427870463132858,-1.6717454639852045,-0.5216840329796075
1617033939161635600,-295.00036450195313,0.9944377385735511,-1.4387468554496765,-0.40665275543779134
1617033939171652600,-294.9903474121094,1.463882465749979,-1.3326134623736143,-0.39389585745632644
1617033939181669400,-294.9803305664062,1.9060265135467052,-1.2876198899149893,-0.11071867503970861
1617033939191685600,-294.970314453125,2.242229475969076,-1.240687458348274,0.2411275544553995
1617033939201702700,-294.96029736328126,2.702310162472725,-1.135514434736967,0.44271191081255673
1617033939211715800,-294.9502841796875,2.859096468943357,-0.9691431383192539,0.608329466253519
1617033939221732900,-294.94026708984376,2.8785926120519636,-0.5168500369518995,0.6429829926140606
1617033939231748900,-294.9302512207031,2.8145874651312828,-0.13057692945897578,0.5283288778215647
1617033939241766000,-294.9202341308594,2.3960078327953815,-0.2800193029075861,1.0427670313261448
1617033939251783000,-294.91021704101564,1.6072598400712013,-0.43353404036164284,1.8912997767969966
1617033939261799000,-294.900201171875,-0.008154080361127853,-0.4999117616325617,2.3438981447212397
1617033939271816000,-294.8901840820312,-0.8967933569014072,-0.8978080869019031,2.249750372993201
1617033939281833000,-294.8801669921875,-1.504379311311245,-1.1997943069458008,1.8819658390015364
1617033939291849700,-294.870150390625,-1.4714765741407871,-1.2927695277631281,1.6111811051681637
1617033939301865700,-294.8601342773438,-1.006761798095703,-1.1409376288294792,1.3973533533096312
1617033939311883000,-294.85011694335935,-0.4088040882527828,-0.9491928217023611,1.3177084464475513
1617033939321899800,-294.84010034179687,-0.07567103479504585,-0.8790788365125656,1.283545772343874
1617033939331915800,-294.8300842285156,0.02021276694536209,-0.7907230921894312,1.2468418893247841
1617033939341933000,-294.82006689453124,-0.0047404725253582,-0.7144394784539938,1.05198479539603
1617033939351949800,-294.81005029296875,-0.05268061982989311,-0.6949369056046009,0.7031351173684001
1617033939361965800,-294.8000341796875,0.04236614656448364,-0.6191442902565002,0.13637158721238374
1617033939371982800,-294.79001708984373,0.26431261520981786,-0.4680786995202303,-0.7422074830844998
1617033939381999900,-294.78000024414064,0.6536673221051693,-0.3658773851960897,-1.523806773097813
1617033939392017000,-294.7699831542969,1.0458721577346324,-0.08260404892861843,-2.251198672105372
1617033939402033000,-294.7599670410156,1.4856325252652167,0.21179098533391952,-2.8089705020323392
1617033939412050000,-294.7499501953125,1.5897475642561911,0.5913479363143443,-3.209196439293027
1617033939422067000,-294.73993310546877,1.5014017568051814,0.9675830493956804,-3.3052146810680627
1617033939432083000,-294.7299169921875,1.5652654494285583,1.2576567133277654,-3.2582398716643453
1617033939442099700,-294.719900390625,1.5584043314874172,1.3195681028395891,-2.8895538587883114
1617033939452117000,-294.70988305664065,1.351705700856447,1.0900538292884827,-2.1246523133367297
1617033939462133800,-294.6998662109375,1.1137152753829955,0.8297130403190851,-1.2500450692802667
1617033939472149800,-294.6898503417969,1.147049389708042,0.6996715329110622,-0.6052659870296716
1617033939482167000,-294.6798330078125,1.092169798529148,0.7026835742086172,-0.09397767585813999
1617033939492183800,-294.6698161621094,0.4671662608504295,0.6448205833047628,0.3617220190823078
1617033939502199800,-294.6598002929687,-0.001391162097454071,0.4364437903285026,0.7157759877547621
1617033939512216800,-294.649783203125,0.18653262543678284,0.24131635502576826,0.8996624825969338
1617033939522233900,-294.63976611328127,0.23302315845489502,0.2589554720908403,0.7367901342108846
1617033939532249900,-294.6297502441406,0.23695114555358884,0.4057540530323982,0.3576777121275663
1617033939542267000,-294.61973315429685,0.18875731574892995,0.6075199034363031,0.07783464256972074
1617033939552284000,-294.60971606445315,0.4914963999867439,0.5742547626942396,-0.02761135276407003
1617033939562301000,-294.5996989746094,0.28593291086554523,0.32734687127172946,-0.5177987159788608
1617033939572317000,-294.58968310546874,-0.3328618353009224,-0.043893502262234686,-0.8879714602813125
1617033939582333700,-294.57966625976565,-0.9141080643177032,-0.07791384528577328,-0.876289790315926
1617033939592351000,-294.5696489257812,-0.1229950960278511,-0.17069091318249702,-0.8660717631623148
1617033939602367000,-294.5596330566406,1.1888321834266184,-0.3624894963234663,-1.0359262255206703
1617033939612383700,-294.5496162109375,1.4530734869658946,-0.5173766911745071,-1.366239837643504
1617033939622401000,-294.5395988769531,0.6375602369129657,-0.380500369310379,-1.3180483459264039
1617033939632417800,-294.5295822753906,-0.23977555532455444,-0.33386955103874205,-1.0202613311380146
1617033939642433800,-294.51956616210936,-0.4131260431051254,-0.7019575980216264,-0.6511451101511716
1617033939652450800,-294.5095490722656,-0.24523966594934463,-1.1726105319440363,-0.1920809072136879
1617033939662467800,-294.4995322265625,-0.39373043776154515,-1.481786371231079,-0.07108662961423397
1617033939672483800,-294.48951611328124,-0.6274678819656372,-1.6800941901355981,-0.08977437894940375
1617033939682500900,-294.4794990234375,-0.6550701746404171,-1.786073269432783,-0.039350013613700864
1617033939692518000,-294.4694821777344,-0.4242880731105804,-1.7859739007115363,-0.017687632381916046
1617033939702534000,-294.4594660644531,0.21673487147688864,-1.675206418094039,-0.02695873407423496
1617033939712551000,-294.44944897460937,0.6052665715515613,-1.3934499161303042,-0.023911621463298796
1617033939722567700,-294.4394323730469,0.47517654882669447,-0.9901935251325368,0.06316752705276012
1617033939732585000,-294.4294150390625,-0.0990273604631424,-0.7766501431733369,-0.22394144185483456
1617033939742601000,-294.41939892578125,-0.44090252330303187,-0.838976543226838,-0.5173831209152937
1617033939752617700,-294.40938232421877,-0.3765665369927883,-0.8231441833227873,-0.2856768902778625
1617033939762635000,-294.3993649902344,-0.46880642927289007,-0.7427285843491553,0.26148177569806574
1617033939772651000,-294.38934887695314,-0.49081017128825183,-0.7578530882447958,0.6715186206161975
1617033939782667800,-294.37933227539065,-0.04122165270447731,-1.062967669442296,0.940613793927431
1617033939792685000,-294.36931494140623,0.6215677180111407,-1.2473966005980968,1.3232546823978424
1617033939802701800,-294.35929809570314,0.4034627272248268,-1.2661574151694774,1.478582606753707
1617033939812717800,-294.3492822265625,-0.16670213580727578,-1.3487901056706904,1.2778379160910844
1617033939822734800,-294.3392651367187,0.43374329919815063,-1.2201046890467404,1.0051035094946623
1617033939832751900,-294.329248046875,1.0209691871464253,-0.41140404161810873,0.2645236276119947
1617033939842768000,-294.31923217773436,1.040429089897871,0.949756300804019,-0.6441828699231147
1617033939852785000,-294.3092150878906,0.5079004222989082,2.64855109975636,-1.2661404640346765
1617033939862802000,-294.29919799804685,0.4034638962686062,3.571111935120821,-1.5150772309362888
1617033939872818000,-294.28918212890625,1.3941747232735155,2.7838603184342383,-0.9930378086477517
1617033939882835000,-294.2791650390625,2.0008944162428377,1.692360381990671,-0.4918576345145702
1617033939892851700,-294.2691481933594,1.414748724746704,1.0566589246869087,-0.29434827251136303
1617033939902869000,-294.25913110351564,0.0008908113598823546,0.9101233785957098,-0.38828444731533523
1617033939912885000,-294.2491149902344,-0.8962520896315574,0.8961527209103107,-0.2770470090985298
1617033939922901800,-294.2390981445312,-0.9650912325799464,0.5937830545067787,-0.08332388763576745
1617033939932919000,-294.2290810546875,-0.3266051129937172,0.009583236381411552,0.06071984163969755
1617033939942935000,-294.21906494140626,0.39163083513379093,-0.36839492097496984,0.2193357016250491
1617033939952951800,-294.2090480957031,0.5494377168238163,-0.23171441394388675,0.3702227209240198
1617033939962968800,-294.19903125,0.22672551961541174,-0.17517302703261375,0.25254239017814395
1617033939972985000,-294.18901489257814,-0.20173253265619276,0.1297965927362442,-0.16884060914069413
1617033939983001900,-294.178998046875,-0.44707741254568095,0.10361819538474082,-0.734534464238584
1617033939993019000,-294.1689812011719,-0.7531903571307659,-0.055932899624109265,-1.1748182711213826
1617033940003036000,-294.15896411132815,-0.49687984659075735,-0.36974516654014583,-1.1688158158361912
1617033940013052000,-294.1489479980469,-0.32019173882007596,-0.44885611265599723,-1.1689306743875145
1617033940023069000,-294.13893115234373,-0.15916180343031883,-0.6569727933913468,-1.0407903244256973
1617033940033085700,-294.12891430664064,0.10999182206988334,-0.9191460584849118,-0.7591010424792766
1617033940043102000,-294.11889794921876,0.23604513662457466,-1.2709113316982983,-0.6755006759896874
1617033940053119000,-294.1088811035156,0.47448096777796744,-1.61278240288496,-0.3350768810018897
1617033940063135700,-294.0988642578125,0.3130360218465328,-1.6395821470052003,0.036488778963685034
1617033940073151700,-294.08884814453126,-0.17831424766778944,-1.607407724109292,-0.13663842145502567
1617033940083169000,-294.0788310546875,-0.36736382436156273,-1.5495710366904734,-0.2777551573678851
1617033940093185800,-294.06881420898435,-0.6551940932810306,-1.305489308604598,-0.7303779290810227
1617033940103202800,-294.05879711914065,-0.9155003954589367,-0.9833657249391078,-1.1888579023897647
1617033940113219000,-294.0487810058594,-0.9056126231729984,-0.5472212098181247,-1.3474375220179557
1617033940123235800,-294.03876416015623,-0.617740268677473,-0.10446282951533793,-1.326724404335022
1617033940133252900,-294.0287470703125,-0.3413701359272003,0.21330606607198713,-1.3908873721659183
1617033940143268900,-294.0187312011719,-0.03963876742720604,0.2805406964331865,-1.5473834635183215
1617033940153286000,-294.0087141113281,0.36088732182383537,0.22391163123846053,-1.3921134068295358
1617033940163303000,-293.99869702148436,0.7000035413444042,0.11136427946686744,-1.236340369054675
1617033940173319000,-293.98868115234376,0.9197697433412074,0.04765197801291942,-1.1109013870060442
1617033940183336000,-293.9786640625,1.1493290250778199,0.08279518758654594,-0.8525079327121377
1617033940193353000,-293.96864697265624,0.9198831405878066,-0.131208797621727,-1.2928750339642165
1617033940203369700,-293.95863037109376,0.5880968255639076,-0.23518764301240444,-1.4879963317871092
1617033940213385200,-293.94861474609377,0.22342764711380003,-0.3202770790159702,-1.4364523147717116
1617033940223402200,-293.93859765625,-0.29402386286258697,-0.3295329831391573,-1.4289014610007404
1617033940233419300,-293.92858081054686,-0.6945791782081127,-0.3997860845386982,-1.4205553651988505
1617033940243435300,-293.91856469726565,-0.8382394611239433,-0.4549374783962965,-1.3226914955571294
1617033940253452000,-293.9085478515625,-0.8753343892872333,-0.462417020496726,-1.1830042079254983
1617033940263469300,-293.89853076171875,-0.8651099323928355,-0.44670916375517844,-1.1641773423805832
1617033940273486000,-293.8885139160156,-0.6974889281749725,-0.35648178034126754,-1.1771721407711506
1617033940283502000,-293.8784978027344,-0.32817864592075346,-0.3780412857204675,-1.224223522542417
1617033940293519400,-293.86848071289063,0.12108604753613471,-0.25955577607154845,-1.0527820832535624
1617033940303536000,-293.8584638671875,0.4923100544571876,-0.08229717493653296,-0.8227677512258291
1617033940313552100,-293.84844775390627,0.6661795976758003,-0.02284019283950329,-0.6319757147789001
1617033940323569200,-293.8384309082031,0.5427940410256386,-0.027805121770501134,-0.43986382790505885
1617033940333586200,-293.82841381835937,0.22954408416748046,-0.21911796722114085,-0.5634393541693687
1617033940343602200,-293.8183977050781,-0.02577157011628151,-0.32507600373029705,-0.5265624526709318
1617033940353619200,-293.808380859375,-0.23080665144920348,-0.32128947092890736,-0.3446113098055124
1617033940363636200,-293.79836376953125,-0.5485048198878765,-0.4226005584150552,-0.3738882576942444
1617033940373653200,-293.7883466796875,-0.80437693901062,-0.6854553760319948,-0.4560960007816553
1617033940383669200,-293.7783308105469,-0.8888497044205665,-0.8491419634103774,-0.6331967810064554
1617033940393686000,-293.76831396484374,-1.0316706139028071,-0.7254688219904899,-0.8100766119569539
1617033940403703300,-293.7582966308594,-1.0896972709357737,-0.5074883343666792,-0.9382423886209725
1617033940413719300,-293.7482807617188,-0.9996353072166442,-0.43781683224737644,-1.1922492983937263
1617033940423736000,-293.7382639160156,-0.7593710915923119,-0.4663730646461248,-1.3230775722652672
1617033940433753300,-293.72824658203126,-0.33315877242088315,-0.5009750069499016,-1.2982190253406762
1617033940443769300,-293.7182307128906,-0.04624970999956131,-0.5022127320513129,-1.292792324116826
1617033940453786000,-293.7082138671875,0.08737550111413002,-0.6868743029192089,-1.3369950384587048
1617033940463803100,-293.69819677734375,0.14763736985325812,-1.0306403940722346,-1.4161433939754962
1617033940473820200,-293.6881799316406,0.3701145843744278,-1.1647007817327975,-1.3131605738848446
1617033940483836200,-293.6781638183594,0.6397299821674823,-1.1642457314416765,-1.1553197899252177
1617033940493853200,-293.66814672851564,0.606305851471424,-1.2311360784098506,-1.318990010690689
1617033940503870200,-293.6581298828125,0.45046296333074565,-1.1693579598888755,-1.4389146132320165
1617033940513886200,-293.6481137695313,0.32927637802958487,-0.8358110649332403,-1.237704058623314
1617033940523903200,-293.6380966796875,0.12858429433703422,-0.4648170673757791,-0.9922124637395143
1617033940533920000,-293.628080078125,-0.09655950904488562,-0.19197920040488242,-0.7380401342719793
1617033940543936300,-293.6180637207031,-0.016789806759357453,-0.19793226359039545,-0.6911988881200551
1617033940553953300,-293.60804663085935,0.25065116960406303,-0.35513270381987094,-0.6742489223629236
1617033940563970000,-293.59803002929686,0.14094693230390548,-0.3674439038604498,-0.7285819855749607
1617033940573987300,-293.5880126953125,-0.1433949099779129,-0.28406477890610693,-0.9238970524042844
1617033940584003300,-293.57799658203123,-0.1948211458325386,-0.23808687158524988,-0.9699421797424554
1617033940594020000,-293.56797998046875,-0.01421791044473648,-0.25619097581356765,-1.0625456446379422
1617033940604037000,-293.557962890625,0.21767828980684278,-0.2903583260923624,-1.1859048978030682
1617033940614053400,-293.5479465332031,0.34012627334594725,-0.3248553467169404,-1.2330401584655046
1617033940624070100,-293.53792993164063,0.3157002726197243,-0.40603520806133747,-1.2347060458511114
1617033940634087200,-293.5279128417969,0.08268529747128486,-0.6447080628409981,-1.111938913360238
1617033940644103200,-293.5178967285156,-0.12410334953069686,-1.0351143246158956,-0.9764677821189165
1617033940654120200,-293.5078798828125,-0.3007143004119396,-1.297557054300606,-0.822754891744256
1617033940664135200,-293.49786474609374,-0.45620647541880605,-1.3147820376068353,-0.736725836803019
1617033940674151200,-293.48784887695314,-0.5327402645230292,-1.0813304246068,-0.6272130304217338
1617033940684168200,-293.4778317871094,-0.7345055304050445,-0.931156522013247,-0.6911310835808515
1617033940694185200,-293.4678146972656,-0.8453565996527671,-0.7689584196269512,-0.7754603488668799
1617033940704201200,-293.457798828125,-0.8647486978650093,-0.6811766757994889,-0.9894830387756228
1617033940714218200,-293.44778173828126,-0.8227998999297619,-0.5317316720023751,-1.173277179159224
1617033940724235000,-293.4377648925781,-0.7572106986880301,-0.19657003532648085,-1.2192799286603926
1617033940734252300,-293.42774780273436,-0.4890694651007652,0.1984323220670223,-0.9924375046670436
1617033940744268300,-293.41773168945315,-0.2613257083535194,0.23529168790876864,-0.9486430788651108
1617033940754285000,-293.40771484375,-0.2066670664489269,-0.14210603921115397,-1.0952820853307843
1617033940764302300,-293.39769775390624,-0.3292354614973068,-0.3918263577058911,-1.0448653187796473
1617033940774318300,-293.387681640625,-0.5388029255628586,-0.32819355122894045,-0.8619909235894679
1617033940784335000,-293.3776647949219,-0.6484311750173568,-0.1539957989692688,-0.46407677040249107
1617033940794352000,-293.36764794921874,-0.642664282053709,-0.5001823952674865,-0.5518061995208263
1617033940804368400,-293.35763159179686,-0.23946692776679993,-0.6999786991640925,-0.5405231734842062
1617033940814385200,-293.34761474609377,-0.04338438369631767,-0.48898061777353286,-0.5533557670503855
1617033940824402200,-293.3375979003906,-0.10359949068427085,-0.07015840885341167,-0.7360749716788529
1617033940834419200,-293.32758081054686,-0.4471405409097671,0.4273030370175838,-0.5900619881570339
1617033940844435200,-293.31756469726565,-0.5400912118077278,0.7062067798987031,-0.2498570966169238
1617033940854452200,-293.3075478515625,-0.2646259189426899,0.7269193130597472,-0.07605857280790805
1617033940864469000,-293.29753100585935,0.10128478400111197,0.5073053790152072,-0.27774054432064293
1617033940874485200,-293.2875146484375,0.2102396642386913,0.256352596116066,-0.9411147291868924
1617033940884502300,-293.2774978027344,0.15099135645627976,0.723195324100554,-1.061769984090328
1617033940894519000,-293.26748095703124,-0.02422258710861206,1.3001157988727092,-0.713899964749813
1617033940904535000,-293.25746484375,-0.4444119927287101,1.155294947744906,-0.3705342710912227
1617033940914552300,-293.2474477539063,-0.7382172444045543,0.5304173745334149,-0.056793023584783074
1617033940924569000,-293.2374309082031,-0.7354349202096462,-0.02678542333394289,-0.024090777422487733
1617033940934586000,-293.22741381835937,-0.5416413638591766,-0.4144444322273135,-0.39511809272766113
1617033940944602400,-293.2173977050781,-0.448311922776699,-0.5506380325242877,-0.5481599519729614
1617033940954619100,-293.207380859375,-0.5850958901822567,-0.5525841981559991,-0.3100257341146469
1617033940964636200,-293.19736376953125,-0.9565396773338317,-0.6001245324879885,0.003819850549101829
1617033940974652200,-293.18734790039065,-1.1810580422937869,-0.45212651262879366,0.1458010943368077
1617033940984669200,-293.1773308105469,-1.297292558145523,-0.18609394175857305,-0.03496814526766538
1617033940994686200,-293.16731372070313,-1.4516332250297068,0.3755126440256834,-0.4982464587688446
1617033941004702200,-293.1572978515625,-1.5758756907701492,1.0360925219982862,-1.0377905580878257
1617033941014719200,-293.1472807617188,-1.749181754887104,1.4306377832740544,-1.6560671255990862
1617033941024736300,-293.137263671875,-1.6245909141004085,1.4914643001586199,-2.175180431307852
1617033941034753000,-293.1272470703125,-0.9311036227822304,1.5092422411724924,-1.9822619042262435
1617033941044769000,-293.11723095703127,0.1313128425180912,1.3415282979741692,-1.0596803183346986
1617033941054786300,-293.1072136230469,1.0373942522466182,0.6672349519476294,-0.04767623567134142
1617033941064803000,-293.09719702148436,1.4859142648160457,-0.10938654965311288,0.7793874591827392
1617033941074819000,-293.08718090820315,1.555954015725851,-0.4567077029392123,1.3743372193813324
1617033941084836400,-293.07716357421873,1.003089831584692,-0.4065814437672496,1.3259236093461513
1617033941094853000,-293.06714697265625,0.6267606104791164,-0.937435017760843,0.9503004906833171
1617033941104869000,-293.057130859375,-0.5035141700387,-1.3493515389457345,0.3661936115384102
1617033941114886100,-293.0471137695312,-1.0364181006908415,-1.7865214515917003,-0.33544659109711644
1617033941124903200,-293.03709692382813,-1.500632525998354,-1.4038723798148334,-0.7210236791498958
1617033941134920200,-293.0270798339844,-2.162097370111942,-0.6804645820073782,-0.8628682909458875
1617033941144936200,-293.0170637207031,-1.8500117808580399,-0.54436728169173,-0.9823243991926311
1617033941154953200,-293.007046875,-1.1701076092123985,-0.22100027383640408,-1.7666241803362965
1617033941164970200,-292.99702978515626,-0.21010405516028402,-0.09312690424770116,-2.47701701374799
1617033941174986200,-292.987013671875,0.14153496132493018,-0.14387377953603864,-2.6990584672003983
1617033941185003300,-292.9769968261719,0.2595616212904453,-0.1804667495265603,-2.8199650665163993
1617033941195020300,-292.96697973632814,0.15736498314142225,-0.32681261826455593,-2.328204462635517
1617033941205036300,-292.9569636230469,-0.1241103637933731,-0.7127475798442959,-1.996128809276223
1617033941215053000,-292.9469470214844,0.16758710194826126,-1.2644736998662351,-2.1093927848845717
1617033941225070000,-292.93692993164063,0.40070144581794737,-1.1337749706584959,-2.206196477948874
1617033941235089200,-292.9269108886719,0.26194179442524906,-0.5872888701818884,-2.2473761912077665
1617033941245105200,-292.91689477539063,0.22201427318453787,-0.5215782345175742,-2.1187126941546794
1617033941255122200,-292.9068779296875,0.280722482740879,-0.5689955269917846,-1.9228776951044797
1617033941265139200,-292.8968608398437,0.30134090787768364,-0.403738329295814,-1.701735090187937
1617033941275156000,-292.88684399414063,0.10867898590564727,-0.29121793859638273,-1.7200820632614193
1617033941285172000,-292.876828125,-0.310752879345417,-0.2354628066919744,-1.7302059823907912
1617033941295189200,-292.8668107910156,-0.4946142397463321,0.16206154345981777,-1.4366563129112124
1617033941305206000,-292.8567939453125,-0.3899345526099205,0.32975773180574175,-1.1737392437130212
1617033941315222000,-292.84677807617186,-0.6970481986701488,0.14858268787935375,-0.9452943529590964
1617033941325239300,-292.8367607421875,-0.8518401164531707,0.08131254781335592,-0.6496656852483749
1617033941335256000,-292.8267438964844,-0.8940764991581439,0.45807840677052736,-0.43628114711269733
1617033941345272000,-292.81672802734374,-0.7880465664565562,0.9847169203523546,-0.3031345132961869
1617033941355289000,-292.8067109375,-0.4762812951982021,1.3988966372288762,-0.27889702087938784
1617033941365306000,-292.79669384765623,0.175806648761034,1.4237683358959852,-0.22308014885038135
1617033941375323100,-292.7866767578125,0.5759668273091316,1.07717155136168,-0.35982524555027484
1617033941385339100,-292.77666088867187,-0.16565233449339867,0.9400601055674255,-0.09317600408643484
1617033941395356200,-292.7666437988281,-1.2310557066500185,0.9894350349154323,0.45336365320831534
1617033941405373200,-292.75662670898436,-1.9647242017090318,1.031949503909424,0.8650432968974113
1617033941415389200,-292.74661083984375,-1.6492074689626692,0.9651992960643022,1.7205486578598617
1617033941425406000,-292.7365939941406,-1.1190507911920546,0.5881449024893343,1.716553450743854
1617033941435423200,-292.72657666015624,-0.3009095307230949,0.6009555034194142,0.9325660965502262
1617033941445439000,-292.71656103515625,-0.4154828353643417,0.8446652563877404,0.2847717581316829
1617033941455456000,-292.7065439453125,-0.7896364659965038,0.8132447936642915,-0.1363233641564846
1617033941465473300,-292.6965266113281,-0.8747533745288848,0.515520395783335,-0.24059388597011563
1617033941475490000,-292.68651000976564,-1.0048001426339148,-0.048467020722851153,0.0678977704450488
1617033941485506000,-292.6764938964844,-0.866119986218214,-0.5509394266236574,0.5749181950390339
1617033941495523000,-292.6664768066406,-0.6008019933581352,-0.7658849304657429,0.6726800656110048
1617033941505540000,-292.6564599609375,-0.6187889009475708,-1.0452071910198777,0.5784367245540023
1617033941515556000,-292.64644384765626,-1.007006128245592,-1.529392464275658,0.49655835955142974
1617033941525573000,-292.6364270019531,-1.2870166633248328,-1.8128972712114453,0.5112824659526348
1617033941535590100,-292.62640991210935,-1.3518752122044562,-1.867980568268895,0.5769742507860064
1617033941545607200,-292.61639282226565,-0.679611910700798,-1.9475322438895701,0.6612655221492052
1617033941555623200,-292.606376953125,0.1817979981303215,-1.90170441256389,0.4959998488858342
1617033941565640000,-292.5963601074219,0.3653869713306427,-1.4288463698126375,-0.272249837949872
1617033941575657200,-292.5863427734375,-0.20219079781770705,-0.8294996898293495,-0.6042734688609838
1617033941585673200,-292.5763269042969,-0.6493675790846347,-0.617299393042177,-0.43323418063223357
1617033941595690000,-292.56631005859373,-0.05534954677820205,-0.4971314832642674,-0.39783436594903465
1617033941605707300,-292.55629272460936,0.5392307955861091,0.148284727846086,-0.6615992841482162
1617033941615723000,-292.54627709960937,1.0421592746913433,0.6634681467600166,-0.5861632271528243
1617033941625740000,-292.5362600097656,0.9919009135723114,0.9079751145206392,-0.7482201675027609
1617033941635757000,-292.52624291992186,0.32883214139342304,1.266263359761983,-1.4304326160907745
1617033941645774000,-292.5162258300781,-0.23949030864238738,1.2909234615050256,-1.5045967534542082
1617033941655790000,-292.5062099609375,-0.8546890761435031,0.9929444312758743,-0.9064426442563533
1617033941665807000,-292.49619287109374,-0.9278232859373092,0.3049503305464983,-0.4432324275553226
1617033941675824000,-292.48617578125,-0.8584744399011135,-0.2424392215758562,-0.06323240898251534
1617033941685840100,-292.4761599121094,-1.010743561208248,-0.738338094305247,0.27469197040498256
1617033941695857200,-292.4661428222656,-1.2281506328582763,-1.1077530059777199,0.8752198229968547
1617033941705874000,-292.4561259765625,-0.6415034215807914,-1.3205650049224495,1.6324141550719737
1617033941715890200,-292.44610986328127,0.6761281602382659,-1.5915297714978456,2.660326293224096
1617033941725907200,-292.4360927734375,1.577723948985338,-1.7223896095514297,3.3360710071027277
1617033941735924000,-292.42607592773436,1.1397428660869597,-1.7326646275892852,3.4793490127027034
1617033941745941200,-292.4160588378906,1.150438447624445,-1.9054738481000064,3.5131548361927267
1617033941755957200,-292.4060427246094,1.5150141025722026,-1.430060567907989,3.740193659541011
1617033941765974000,-292.39602587890624,1.6986135971665381,-0.6174275494664907,3.42803032887578
1617033941775991000,-292.38600903320315,1.469242531478405,0.15197569131851196,2.9853508590281006
1617033941786007000,-292.3759929199219,1.2259995923042297,0.8625134861588477,2.7717303201794623
1617033941796024000,-292.3659758300781,0.6708896750628948,1.2449278723970054,2.5224714817166327
1617033941806041000,-292.355958984375,-0.30556232496500013,1.1489233668863772,2.4494161823779343
1617033941816057000,-292.34594287109377,-1.1742121219217776,0.6797936970084906,2.48661281735003
1617033941826074000,-292.33592578125,-1.3566215299487112,0.18285218335837125,2.3332114771425725
1617033941836091100,-292.32590893554686,-1.1918109069764613,-0.2665881589263677,1.9624018962413072
1617033941846108200,-292.3158918457031,-1.3416601076602934,-0.720308078226447,1.508254691439867
1617033941856124200,-292.3058757324219,-1.4969371786117553,-1.1273393115878105,1.1111316886305809
1617033941866141200,-292.29585888671875,-1.5436030681967734,-1.3277426414668558,0.8063923704862594
1617033941876158000,-292.2858420410156,-1.7321254061460494,-1.4113184580370783,0.5768494553625584
1617033941886174000,-292.2758259277344,-1.5831225931584834,-1.311451431879401,0.23005729438662528
1617033941896191200,-292.26580883789063,-0.5412649317622185,-0.9442828378289937,-0.4743441896557808
1617033941906208000,-292.2557919921875,0.8168027053415775,-0.3057470338821411,-1.4037661429613828
1617033941916224000,-292.2457758789063,1.3713093959927558,0.370261591629684,-2.1829905205368996
1617033941926241300,-292.2357587890625,1.7724036405205725,0.9627601592838764,-2.7567811728507277
1617033941936258000,-292.22574194335937,2.5847721628069875,1.453439982190728,-3.453423713329434
1617033941946275000,-292.2157248535156,2.752379138499498,1.542975583948195,-4.045415792766213
1617033941956291000,-292.205708984375,2.244338430947065,1.3476491189420223,-4.346016111409664
1617033941966308000,-292.19569189453125,2.015319247436523,1.1311012944698333,-4.551428793883323
1617033941976325000,-292.1856748046875,1.5388824694156646,0.8047954566836356,-4.551030734476447
1617033941986341000,-292.1756589355469,0.7361305012583732,0.39702363408803937,-4.286521135389805
1617033941996358100,-292.16564184570314,0.5068576352477073,-0.050343116793036456,-3.6338475004971027
1617033942006375200,-292.1556247558594,1.1666741276323795,-0.6090408293932676,-2.807242363065481
1617033942016391000,-292.1456091308594,0.9344856664359569,-0.9394365668416023,-2.0448796884417533
1617033942026408200,-292.135591796875,-0.07651742249131202,-0.9503437453031539,-1.406376617720723
1617033942036425200,-292.12557470703126,-0.6039864686131478,-0.7308259651094675,-0.8386123860895633
1617033942046442000,-292.1155581054687,-0.36697570182681083,-0.3154202866345644,-0.2888672107517719
1617033942056458000,-292.1055419921875,-0.21453940725922582,0.1757891131043434,0.11468962449729442
1617033942066475300,-292.09552465820315,-0.2851028897821903,0.4384416861474514,0.27810674728453155
1617033942076492000,-292.0855080566406,-0.035867432194948194,0.43965866072177884,0.15789455997347832
1617033942086508000,-292.0754919433594,0.3027718174636364,0.2867459808140993,-0.26887071690559383
1617033942096525300,-292.065474609375,0.1585655911028385,0.28244214614033697,-0.46438919735252854
1617033942106542000,-292.0554580078125,-0.13885200585126875,0.20753566597700118,-0.28820260936319825
1617033942116558000,-292.0454418945312,-0.0009667992055416107,-0.21267828956246373,-0.016531448084115982
1617033942126575000,-292.0354248046875,0.41555180894732474,-0.7490799992024898,0.14180208782851694
1617033942136592100,-292.0254079589844,0.4110638498783111,-0.9740542912364005,0.22456512671113013
1617033942146609200,-292.0153908691406,0.17889058625102042,-0.8286836972713469,0.1977653825908899
1617033942156625200,-292.00537475585935,-0.015293430721759795,-0.7242927639484406,-0.13150573474168778
1617033942166642200,-291.99535791015626,-0.4880360303997993,-0.48032267954349517,-0.5021534030795097
1617033942176659200,-291.9853408203125,-1.0855740535259246,0.15448445926904678,-0.607760726454854
1617033942186675000,-291.9753249511719,-1.2021943538248538,0.5768254899650812,-0.5232224945932626
1617033942196692000,-291.96530810546875,-0.8637737153530121,0.6192974349915981,-0.34768881755471226
1617033942206709200,-291.9552907714844,-0.4182511310338974,0.5798129813432693,0.0788011495143175
1617033942216725800,-291.9452741699219,-0.03436637998223305,0.4790525134772062,0.44324411799311636
1617033942226742800,-291.93525732421875,0.19915712921023368,0.3011281419098377,0.34137773471176625
1617033942236759800,-291.925240234375,0.38529111071825023,0.3990010716408491,0.07390051799118519
1617033942246776800,-291.91522314453124,0.5881669681906699,0.6764660138905048,-0.19672902528047562
1617033942256792800,-291.90520727539064,0.9991256041288376,0.53812897182405,-0.3684802611708641
1617033942266809900,-291.8951901855469,1.0860217972934245,0.2506348029911518,-0.5343190581470728
1617033942276827000,-291.8851730957031,0.7442927649259566,0.245309808576107,-0.6012205110311508
1617033942286843000,-291.8751572265625,0.2671872938632965,0.44221477494537825,-0.5037316121816635
1617033942296859600,-291.8651403808594,-0.3071089698851108,0.47484921656846996,-0.4359831870794296
1617033942306877000,-291.855123046875,-0.6667699647843838,0.7316536481052637,-0.15318798971772193
1617033942316893000,-291.84510717773435,-0.5339058011710643,1.1645295168191194,0.6777928785800933
1617033942326909700,-291.83509033203126,-0.6854910318672657,1.1756669969052076,1.400378838610649
1617033942336927000,-291.8250729980469,-0.7255179218292236,0.928521205073595,1.4241992746591567
1617033942346943700,-291.81505615234374,-0.4787140753030777,0.7492448343753815,1.1776128702759743
1617033942356959700,-291.80504028320314,-0.35236616171598434,0.6736293291598558,0.5467196900367737
1617033942366976800,-291.7950231933594,-0.24060206927657127,0.7596247740924358,-0.16938216867148875
1617033942376993800,-291.7850061035156,-0.20538111829161643,0.6468716706156731,-0.5671347015559673
1617033942387009800,-291.774990234375,-0.49176995623111724,0.010078326421976088,-0.8983037614643573
1617033942397026800,-291.76497314453127,-0.6828034002184867,-0.9334913947016,-1.0388158094823359
1617033942407043800,-291.7549560546875,-0.9385025008618831,-1.4951871200740336,-0.8811889605343342
1617033942417059800,-291.74494018554685,-1.0635749876856804,-1.7027613644957542,-0.47115971440076826
1617033942427076900,-291.73492309570315,-1.08849198679924,-1.5608184068918227,-0.229882522341609
1617033942437093600,-291.72490625,-0.9785095170795917,-1.4480033440947533,-0.5584840698495507
1617033942447111000,-291.71488916015625,-0.6551449934422969,-1.2146966925233602,-1.1590274122714996
1617033942457127000,-291.704873046875,-0.20317863981127737,-0.6067547642827034,-1.5311761328220366
1617033942467143700,-291.6948562011719,0.34233459704518315,0.3347510100483894,-1.429823252020776
1617033942477161000,-291.68483911132813,0.8449497724175453,1.0083177953660487,-1.257618134883046
1617033942487177000,-291.67482299804686,1.2460229741573332,1.3606734356880188,-1.7339432692229746
1617033942497193700,-291.6648061523438,1.6337047794044017,1.1843617600142955,-2.1227415112793446
1617033942507210800,-291.6547893066406,1.8345254579126833,0.8762146792531013,-1.9646458757758138
1617033942517227000,-291.64477294921875,1.6138579231619834,0.5605962396979332,-1.661416377672553
1617033942527243800,-291.6347561035156,1.1564824039638042,0.20383038171827791,-1.3860589290961622
1617033942537260800,-291.6247392578125,0.8659189106881618,-0.1721072097212076,-1.0369961928397415
1617033942547277800,-291.61472216796875,0.61446343896389,-0.367118909689784,-1.2265817761063575
1617033942557293800,-291.6047060546875,0.22627660680413245,-0.5733160205394029,-1.63945238314569
1617033942567310800,-291.5946892089844,-0.03669745327830314,-0.5075058700233698,-1.5045137513458728
1617033942577327600,-291.58467236328124,-0.049203883630037304,-0.4697340655118227,-1.187381984618306
1617033942587344000,-291.57465625,0.04439326847791671,-0.5280483073145151,-0.8601809515580534
1617033942597361000,-291.5646391601563,-0.07383797414898872,-0.6861614784747362,-0.7153793896526098
1617033942607377700,-291.5546223144531,-0.4167898263096809,-0.6414730264425277,-0.43504035327136514
1617033942617393700,-291.5446064453125,-1.0400327840566634,-0.7594798126637935,-0.4902683194965124
1617033942627411000,-291.5345891113281,-1.4136346260249615,-0.8909428773075342,-0.34846301679760217
1617033942637427700,-291.524572265625,-1.4688310280680656,-1.040772204247117,-0.3791834414929151
1617033942647444700,-291.51455517578125,-1.1659995893716812,-1.1188631596654652,-0.38781069232374427
1617033942657461000,-291.5045390625,-0.8395791852951049,-1.1461743604391812,-0.4887520697146654
1617033942667477800,-291.4945222167969,-0.6699719756960868,-1.3074725913763046,-0.8963345072180032
1617033942677494800,-291.48450512695314,-0.5784615667343139,-1.2651952921390532,-1.127327036628127
1617033942687510800,-291.4744892578125,-0.599946253311634,-1.2417255692243576,-1.7259776971712708
1617033942697527800,-291.4644721679687,-0.4283668668568134,-1.227923838365078,-2.4750036280989645
1617033942707544800,-291.454455078125,0.3061608753800392,-1.0698787640050054,-2.468134326851368
1617033942717560800,-291.44443920898436,0.8416296880841254,-0.8812117568880319,-2.1681246675774455
1617033942727577900,-291.4344221191406,0.6136030227422714,-0.648070817272365,-1.977299897904694
1617033942737595000,-291.42440502929685,0.21011925272941587,-0.39953824725747106,-1.3058125492095947
1617033942747611600,-291.41438842773437,-0.44610243003368377,-0.15137509507685898,-0.6167793146908283
1617033942757627600,-291.4043723144531,-1.0979448747992515,-0.021373627418279646,-0.152094933784008
1617033942767645000,-291.39435498046873,-1.4881635050475597,0.02252192067056894,0.1659866810142994
1617033942777661700,-291.38433837890625,-1.6831646836221217,-0.017877894257009027,-0.07266717680394649
1617033942787677700,-291.374322265625,-1.349618957710266,0.2909416789382696,-0.05778057331740856
1617033942797695000,-291.3643049316406,-1.0220201575040817,0.45598084996938704,-0.465438414144516
1617033942807711700,-291.35428833007813,-0.8166986604452132,0.44167643028497694,-1.4807704721868038
1617033942817727700,-291.34427221679687,-0.42577392775416373,0.46089784810543055,-2.2498756068080663
1617033942827744800,-291.3342551269531,0.22086510314941404,0.5499646633073687,-2.556502346134186
1617033942837761800,-291.32423828125,0.3761094408750534,0.31529578347206116,-3.157811704492569
1617033942847777800,-291.31422216796875,0.33304654421806335,-0.07666209165900945,-3.6146383576363323
1617033942857794800,-291.304205078125,0.4555401204645633,-0.5248018727391958,-3.6431203557550904
1617033942867811800,-291.2941882324219,0.2075777515530586,-0.8224123619168996,-3.4603830309480426
1617033942877828900,-291.28417114257815,-0.14370704466700554,-1.0497720877826213,-3.048555210959911
1617033942887844900,-291.2741550292969,-0.5201496630191803,-1.2803294406458734,-2.436945407861471
1617033942897861600,-291.2641384277344,-0.949379284185171,-1.3400059107124804,-1.7446610625922678
1617033942907879000,-291.25412109375,-1.2771791599214075,-1.2886264366090296,-1.0904881290525197
1617033942917895000,-291.24410498046876,-1.4842834487438201,-1.0723711653426289,-0.5567465785324573
1617033942927911700,-291.2340883789062,-1.6048445956230162,-0.6395481958597898,-0.10782032324969767
1617033942937929000,-291.22407104492186,-1.6730641453683375,-0.04911240595430135,0.23175591499805448
1617033942947945000,-291.21405493164065,-1.7954571838498115,0.5480711046457291,0.3492869004011154
1617033942957961700,-291.2040383300781,-1.7057482713520526,1.1074199746310711,0.34154256988465787
1617033942967978800,-291.19402124023435,-1.1829857954859733,1.5934481723397969,0.38634032751023767
1617033942977995800,-291.18400415039065,-0.6663900255560875,2.0720207933455703,0.4122364007890224
1617033942988011800,-291.17398828125,-0.13836100746393204,2.3010522518157956,0.21317980934381484
1617033942998028800,-291.16397119140623,0.3250923703432083,2.202717549791932,-0.08507774556577205
1617033943008045800,-291.1539541015625,0.5567547618389129,1.8251976575970648,-0.46867198923826214
1617033943018061800,-291.1439382324219,0.780477007985115,1.4262290269210933,-0.7376151868581772
1617033943028078800,-291.1339211425781,0.6094435649752616,1.1651619695037603,-0.9416133263587951
1617033943038095600,-291.123904296875,0.7549240490555763,0.6446306136906147,-1.0689660330742596
1617033943048111900,-291.11388818359376,0.6254980431973933,0.06336743353903293,-1.0327905578434466
1617033943058129000,-291.10387109375,0.33346506189107894,-0.272093186083436,-0.7957540720939635
1617033943068145700,-291.09385424804685,-0.16636662024259566,-0.5892863276094198,-0.6739560768961906
1617033943078163000,-291.08383715820315,-0.39777766732573505,-0.8839940810829401,-0.4609411027252674
1617033943088179000,-291.0738210449219,-0.8080489055216312,-0.9088853612333535,-0.4448012843072414
1617033943098195700,-291.06380419921874,-0.9945008669376373,-0.7153747134774923,-0.6218915431380272
1617033943108213000,-291.053787109375,-0.5853893201708793,-0.560081860435009,-0.8593921392679214
1617033943118229000,-291.04377099609377,-0.21017887396216392,-0.3197778973221779,-1.198626432210207
1617033943128245800,-291.0337541503906,-0.07371288646459578,0.09827186592072248,-1.4622995804727077
1617033943138262800,-291.0237373046875,-0.057924950224161144,0.49741921416446566,-1.564829396098852
1617033943148278800,-291.01372119140626,-0.4132745116651058,0.8615332429498433,-1.5200275468200444
1617033943158295800,-291.0037041015625,-0.899371098434925,1.24978700286597,-1.1297943035244942
1617033943168312800,-290.99368725585936,-1.2410182977378368,1.3800060587979852,-0.6162134975016117
1617033943178328800,-290.98367114257815,-1.2183821030378341,0.9916837636902928,-0.4247293871372938
1617033943188345900,-290.9736540527344,-0.9638988079249858,0.4368595315225422,-0.4784282440990209
1617033943198363000,-290.96363720703124,-1.0600514897346496,0.23228344600349662,-0.3680313483595848
1617033943208379600,-290.95362036132815,-1.180578734344244,0.12016805590838193,-0.06887538330554961
1617033943218395400,-290.9436044921875,-1.293711777049303,0.2293450544640422,0.16320669490695
1617033943228412700,-290.93358740234373,-1.1893524079084397,0.6019146307751536,0.290317994081974
1617033943238429400,-290.92357055664064,-0.7130337033092975,0.9766473764695227,0.29525311239659785
1617033943248445400,-290.9135544433594,-0.024233108502626416,0.945162543272972,-0.022638240526616574
1617033943258462500,-290.9035375976562,-0.1503039587140083,0.9201666337043046,-0.42751580298542974
1617033943268479500,-290.8935205078125,-0.6140425832033157,1.1359046030983329,-0.5061079859241843
1617033943278495500,-290.88350439453126,-0.6605062282145023,0.8232444288268684,-0.49888300310671324
1617033943288512500,-290.8734875488281,-0.6768272484183311,-0.009345482102781534,-0.4893225630789995
1617033943298529500,-290.86347045898435,-1.2776128751635552,-0.585297696364671,-0.2937710571452975
1617033943308545500,-290.85345434570314,-1.9370763163268565,-0.7501802155293524,-0.1474327871918678
1617033943318562600,-290.8434375,-1.9984148743867873,-0.9830568051204085,-0.014859423218667506
1617033943328579300,-290.8334206542969,-2.041868231666088,-1.0822618602380156,-0.023581366595625874
1617033943338596600,-290.8234033203125,-1.6221511197328566,-0.985085096077621,0.096443189188838
1617033943348612600,-290.8133874511719,-1.1579776109576225,-0.8561147250324487,0.0918634601831436
1617033943358629400,-290.80337060546873,-0.6442506744623184,-0.7428904969125986,-0.20967092444002627
1617033943368646700,-290.79335327148436,-1.0124152938127517,-1.1863939964942634,-0.9512661208450793
1617033943378662700,-290.78333740234376,-1.5325509283065795,-1.4053349997133016,-1.2859502031370997
1617033943388679400,-290.7733205566406,-1.6505238122582435,-0.9486120992049575,-0.908125482776761
1617033943398696400,-290.76330346679686,-2.076275528180599,-1.364204386293143,-0.5707102219551802
1617033943408712700,-290.75328735351565,-1.9691361729323862,-2.139280119756609,-0.20618483588993547
1617033943418729500,-290.7432705078125,-1.6739619709908962,-2.2197001026444134,0.16514204688370226
1617033943428746500,-290.73325341796874,-1.4683762700378893,-2.0060250571295617,0.40689387071728705
1617033943438762500,-290.72323754882814,-1.2372177364110946,-1.6074688066467642,0.46797202427536244
1617033943448779500,-290.7132204589844,-0.7142951015472412,-1.4771297775968908,0.33899142409712074
1617033943458796500,-290.7032033691406,-0.5095113646268844,-1.294349490430951,0.14962766688764095
1617033943468813300,-290.69318676757814,-0.8364403027474879,-1.2248660582296549,0.25296879889667034
1617033943478829600,-290.68317041015627,-1.1284615936160087,-1.3073022032454609,0.7176297989279031
1617033943488846600,-290.6731533203125,-1.037797572350502,-1.1192822618603706,0.7909352736353874
1617033943498863400,-290.66313671875,-0.6423194141387939,-0.69685939809978,0.6017229075953364
1617033943508879400,-290.65312060546876,-0.4286532825827598,-0.2683675896890461,0.45276685635894537
1617033943518896600,-290.6431032714844,-0.07206570377945899,-0.18141776664108036,0.1132353340357542
1617033943528913400,-290.63308666992185,0.017069208222627637,-0.044110944405198096,-0.3768447694122791
1617033943538929400,-290.62307055664064,-0.2607902863025665,-0.10940291626602411,-0.4460393016695976
1617033943548946700,-290.6130532226563,-0.25609189935326576,-0.3498506717637181,-0.285640649920702
1617033943558963500,-290.60303662109374,-0.03302314867973327,-0.6724018331915139,-0.139895961946249
1617033943568980500,-290.59301953125,-0.39255321067571636,-1.0373805159822105,0.07033668802976607
1617033943578996500,-290.58300341796877,-0.5474585257053375,-1.02745942594856,-0.21849895853996276
1617033943589013500,-290.5729865722656,-0.7377391054987907,-0.7311782856784761,-0.9249597131997346
1617033943599030500,-290.56296948242186,-1.4736451503515242,-0.6231497265055775,-1.0389578483015298
1617033943609046500,-290.55295336914065,-1.4110744201481342,-0.8067505362741648,-0.8124994551897049
1617033943619063600,-290.5429365234375,-0.7301496732831001,-0.9822205004267394,-0.9067857586055994
1617033943629080600,-290.53291943359375,-1.1074562149882317,-1.0048596177361906,-1.4038298558473585
1617033943639096600,-290.5229033203125,-1.9893863492786883,-1.0900083827115594,-1.4151836090326309
1617033943649113600,-290.5128864746094,-1.6106839693009853,-1.408030376277119,-0.38339725979566575
1617033943659130600,-290.50286938476563,-0.46032267856597897,-1.3355283269070088,0.21368717434406279
1617033943669146600,-290.49285327148436,0.21662147423028943,-0.9860454655423759,0.5073872120797633
1617033943679163400,-290.4828366699219,0.525236172503233,-0.6787808667041361,1.4086235198646784
1617033943689180700,-290.4728193359375,0.5589280142247677,-0.39941125987693665,2.2571821304291486
1617033943699197400,-290.46280249023437,0.9623381344795227,-0.11588088010847568,2.4902426982849835
1617033943709213400,-290.45278662109376,1.0220388622045515,0.03491466151475906,2.225715563541651
1617033943719230700,-290.4427692871094,0.9879191504597663,0.23933394903689623,2.0495716456502673
1617033943729247500,-290.43275244140625,1.0210089346349238,0.5337719456583261,2.2732436229139563
1617033943739263500,-290.42273657226565,0.6800479640305042,0.6976487949118018,2.143667979452014
1617033943749280500,-290.4127194824219,0.6010498306393623,0.7721645221918821,2.0462474696636197
1617033943759297500,-290.40270239257814,0.9543220012843608,0.6719307085484266,1.8803648335456846
1617033943769313500,-290.3926865234375,0.9273907397389411,0.45068566617071626,1.7801070545047522
1617033943779330600,-290.3826694335938,0.027110125243663786,0.19532032752633094,1.8874293651044367
1617033943789347600,-290.37265234375,-1.0985457633018494,0.015309212812781333,2.1562837153971195
1617033943799363600,-290.36263647460936,-1.604897202593088,-0.1747130083054304,2.196522202283144
1617033943809380600,-290.3526193847656,-1.5843068345069884,-0.33615327806174755,1.8977111051440239
1617033943819397400,-290.3426025390625,-1.3396025906085967,-0.5133323842197657,1.459009306755662
1617033943829414700,-290.33258544921875,-1.1856862866163254,-0.8174240521103143,0.9799176303118466
1617033943839430700,-290.3225693359375,-0.9239280320644379,-1.0153609918758273,0.4573439550161361
1617033943849447400,-290.3125524902344,-0.6610697073161602,-1.0621025770455599,-0.255679226899147
1617033943859464700,-290.30253540039064,-0.35574236015081406,-0.9746265381664038,-1.259975511664152
1617033943869480700,-290.29251928710937,-0.08847089513540267,-0.818586666148901,-2.400984452164173
1617033943879497500,-290.2825024414062,-0.04212532354593277,-0.5533896693199872,-3.376669559472799
1617033943889514500,-290.27248559570313,0.19208324530124662,-0.19967676917016505,-4.103738802397251
1617033943899530800,-290.26246923828126,0.6119125854372978,-0.08576543556898832,-4.450029443591833
1617033943909547500,-290.2524523925781,0.6605448066592217,-0.14651976400017738,-4.230490036088228
1617033943919564500,-290.242435546875,0.6093593938231467,-0.110285252058506,-3.414131567382812
1617033943929580500,-290.23241943359375,0.5964928979873657,0.04954173728227615,-2.45022632971704
1617033943939597600,-290.22240234375,0.6196294434249401,-0.20890403172075747,-1.8842443053275346
1617033943949614600,-290.2123854980469,0.6874947729051113,-0.44977088941335674,-1.6168565204560756
1617033943959631400,-290.20236865234375,0.7919254537165165,-0.2261222930252552,-1.2795441354870796
1617033943969647600,-290.1923522949219,1.0997755973577499,0.13059855676889418,-1.0827969900280237
1617033943979664600,-290.1823354492187,1.1391174276649951,0.38755671756267546,-0.9926946942985058
1617033943989681400,-290.17231860351563,0.7743161472678184,0.6466776093482971,-0.8434253393292427
1617033943999697400,-290.16230249023437,0.603661474442482,1.064797222957015,-0.5827332527041434
1617033944009714700,-290.1522854003906,0.5707189897835254,1.3416823194921015,-0.3875876972228288
1617033944019731500,-290.1422685546875,0.42219431570172306,1.4963292758464812,-0.15366028340458868
1617033944029747500,-290.13225244140625,0.44236733515858645,1.728903521490097,0.1844680941224098
1617033944039764700,-290.1222353515625,0.5762941595673561,1.806483604776859,0.44979310124516486
1617033944049781500,-290.1122185058594,0.6440905154645442,1.5619026949971913,0.6572106938004494
1617033944059797500,-290.10220239257814,0.4426023129582405,1.281952950194478,0.8643038767069577
1617033944069814500,-290.092185546875,0.09523147531151771,1.2009265258461237,0.9415478599071502
1617033944079831600,-290.08216845703123,0.03965864117145538,1.1642319951772688,0.8029536282092332
1617033944089848600,-290.0721513671875,0.07384381936788559,1.1867933710753917,0.4797586159199476
1617033944099864600,-290.06213549804687,0.09706219787001609,1.3052093226194381,0.0920773951947689
1617033944109881600,-290.0521184082031,0.3712158236145973,1.4100269569218158,-0.13476912045180797
1617033944119898600,-290.04210131835936,0.7014192533612251,1.452712836959958,-0.22489479705691337
1617033944129914600,-290.03208544921876,0.7959668380618095,1.356150405305624,-0.34634850886166096
1617033944139931400,-290.0220686035156,0.6519102493047714,0.9693617495059966,-0.4489420373737812
1617033944149948700,-290.01205126953124,0.08496142570972443,0.8041904765278101,-0.5853057335406542
1617033944159964700,-290.00203540039064,-0.07940145349502563,0.7231979544490575,-0.7695505403012037
1617033944169981400,-289.9920185546875,-0.02737666722536087,0.6023112288773059,-0.9523515779942273
1617033944179998700,-289.9820012207031,-0.02178746891617775,0.4226134178966284,-1.0754665010094642
1617033944190014700,-289.9719853515625,-0.09738017777800559,0.17989070320427417,-1.0936965697050094
1617033944200031500,-289.9619685058594,-0.04166939647197723,-0.10594283894002438,-0.9538485385537147
1617033944210048500,-289.9519514160156,-0.07362403913736343,-0.39373803654611106,-0.7885755587667226
1617033944220068900,-289.9419311523437,-0.2468389178395271,-0.6053174249559641,-0.6321990021407604
1617033944230084900,-289.9319150390625,-0.3252443460345268,-0.5916355210840701,-0.3633224400162697
1617033944240102000,-289.92189819335937,-0.14126958838701248,-0.24235855755507946,-0.05731470937132835
1617033944250119000,-289.9118811035156,-0.13710662348866462,0.10882745446562767,0.03240472452044487
1617033944260135000,-289.9018649902344,-0.29359833092689513,0.07565934435725212,-0.07043021153211593
1617033944270152000,-289.89184814453125,-0.14053542889356613,0.3791676594018936,0.18749533298909662
1617033944280169000,-289.8818310546875,0.26852117281556126,0.7761948006212711,0.5948311022549867
1617033944290185000,-289.8718149414062,0.6854477772474289,0.7698550762057303,0.7967500973939895
1617033944300202000,-289.86179809570314,0.7446411399722099,0.06053308689594268,0.6596271072924137
1617033944310218800,-289.85178125,0.8800771999001502,-0.7344745507448911,0.5743447790652513
1617033944320235000,-289.8417648925781,1.1754980700790882,-0.974842226743698,1.2289040815740824
1617033944330252000,-289.831748046875,0.5862953290998936,-1.3953215552210807,1.3132523438215256
1617033944340268800,-289.8217312011719,0.06725041245222091,-1.8409370785206556,0.8876713082909583
1617033944350286000,-289.8117138671875,-0.12190671626925467,-1.9981839882403611,0.5939677634239197
1617033944360302000,-289.80169799804685,-0.09591653496623039,-1.7400205433100462,0.2947966008007526
1617033944370318800,-289.79168115234376,-0.10481880334615706,-1.2215385212421417,0.01775309883356094
1617033944380335900,-289.7816640625,-0.1891606358528137,-0.8639964181929827,-0.06037000528872013
1617033944390352100,-289.77164794921873,-0.3923030353069305,-0.6600713439285755,-0.27906828579306603
1617033944400369000,-289.76163110351564,-0.7047931137084961,-0.6683598643243313,-0.8429495385110378
1617033944410386000,-289.7516140136719,-0.7884381961226463,-0.675609689322114,-1.2482979333519935
1617033944420402000,-289.7415981445312,-0.6680477296352386,-0.42582887281179427,-1.2183680745124816
1617033944430419000,-289.7315810546875,-0.4711819262325763,-0.5171545728564262,-1.3853437665641306
1617033944440436000,-289.72156396484377,0.6007926410079002,-0.36049218502640723,-0.9489356320708989
1617033944450452000,-289.7115480957031,1.5772084006786347,0.06577683276832104,-0.3589554769784212
1617033944460469000,-289.70153100585935,1.7910592411518096,-0.16877543494999409,-0.6521154164880514
1617033944470486000,-289.69151391601565,1.8330524627506732,-0.22651567625701427,-0.6080839670598507
1617033944480502800,-289.6814973144531,1.6590882269859313,-0.14723521879315377,-0.4136702329844236
1617033944490518800,-289.6714812011719,1.6296856068909167,0.008480243575572966,-0.3540823179841041
1617033944500536000,-289.6614638671875,1.6841127781271934,0.22736147943139076,-0.4700906238645315
1617033944510552800,-289.651447265625,1.5580957039296626,0.3202460993558168,-0.9082476478517055
1617033944520568800,-289.6414311523437,1.3775801468253135,0.2882973019093275,-1.529597923719883
1617033944530586000,-289.63141381835936,1.5693921739697456,0.49890112328529357,-1.784986058717966
1617033944540603000,-289.6213972167969,1.665640717369318,0.7216396190911532,-1.9014637356758117
1617033944550619000,-289.6113811035156,1.6466835034430025,0.751129332947731,-2.038597247171402
1617033944560636000,-289.60136401367185,1.4515104754328727,0.6493365994244814,-1.8626263477593659
1617033944570653000,-289.59134716796876,0.7341700148403644,0.5300538019180298,-1.5037725775897501
1617033944580669000,-289.5813310546875,-0.12016601008176803,0.37357261587381363,-1.0705950955808161
1617033944590686000,-289.57131396484374,-0.7665595417916774,0.23854572126865387,-0.6120598849534988
1617033944600703000,-289.56129711914065,-1.1173206063985823,0.2963268791079521,-0.10874152974784373
1617033944610719000,-289.5512810058594,-1.285802026838064,0.5729673532322049,0.12830021669864652
1617033944620736000,-289.5412639160156,-0.9303811537265777,0.6512059004276991,-0.005175941333174706
1617033944630752800,-289.53124731445314,-0.2650152105212211,0.5440118923828006,-0.3949801455616951
1617033944640769000,-289.52123095703126,0.038192660272121426,0.5155132353901862,-0.7032926460176706
1617033944650786000,-289.5112138671875,0.1962579006373882,0.4934136317849159,-0.9962520945191383
1617033944660802800,-289.501197265625,0.17937340133190155,0.3077069357782602,-1.2502771244704722
1617033944670820000,-289.4911799316406,-0.03334112858772278,0.19918167912960053,-0.9993927306324243
1617033944680835800,-289.4811640625,-0.21752631411552428,-0.2623936298459768,-0.27002222502827644
1617033944690852900,-289.47114721679685,-0.665683923113346,-1.0551742390871048,0.5621645119279622
1617033944700870000,-289.46113012695315,-1.3604630078077316,-1.4456073888689278,1.1998761400103568
1617033944710886000,-289.4511140136719,-1.8346470384657383,-1.1707149274557829,1.6822732877403497
1617033944720903000,-289.44109716796873,-1.9114754266023635,-0.6582400368481874,2.1059026046812535
1617033944730920000,-289.431080078125,-1.618120256781578,-0.4165355592876672,2.146756008595228
1617033944740935700,-289.4210642089844,-1.1382312924802303,-0.4867445292845368,1.7898790914565323
1617033944750953000,-289.4110471191406,-0.5425158086061478,-0.31996406754404305,1.139583876132965
1617033944760970000,-289.40103002929686,0.4257821110606193,0.38337972413897514,0.35821605678796764
1617033944770985700,-289.39101416015626,1.6654828964591026,0.7936638218164443,-0.2723889541596174
1617033944781003000,-289.3809970703125,2.0330676700949666,0.9228431594371795,-0.5553238522529602
1617033944791020000,-289.37097998046875,1.5249030439019202,1.070002390384674,-0.33287177217304703
1617033944801035800,-289.36096411132814,0.683183339446783,1.1336539015620946,0.36114100432395935
1617033944811052800,-289.350947265625,0.6652560530900955,1.6800933133527636,1.2644745766490697
1617033944821070000,-289.34092993164063,1.1383224778950214,1.1853411264404654,1.1655337254256009
1617033944831086800,-289.3309130859375,0.9251531899452209,0.6233849965661764,-0.2565466573834419
1617033944841102800,-289.3208972167969,1.2019359951496122,0.8530869016438722,-1.5491998652905226
1617033944851119900,-289.3108801269531,2.1498457913041116,1.0249497812151909,-2.1790625334382057
1617033944861137000,-289.30086303710937,1.80232297796607,0.7898451403111219,-3.126594728451967
1617033944871153000,-289.29084716796876,1.2085317401528357,0.4699003619894385,-3.074747636836767
1617033944881170000,-289.280830078125,0.32732524396181106,0.3593646423012018,-2.3796698614567515
1617033944891187000,-289.27081298828125,-0.7184756021022797,0.4084910767808556,-1.9476625922709703
1617033944901203000,-289.26079711914065,-1.3623708872556686,0.26952158202975984,-1.1694196269482373
1617033944911219700,-289.2507802734375,-1.4780045146048069,0.14500468326210975,-0.8352975624531507
1617033944921237000,-289.24076293945313,-1.8024924893140792,-0.22510347137153147,-0.3261328193068504
1617033944931253000,-289.2307470703125,-2.030107651245594,-0.7677291700929403,0.08049041777551173
1617033944941269800,-289.2207302246094,-2.280357838833332,-0.9427835391819477,0.7527063730061054
1617033944951287000,-289.210712890625,-2.1828151639699933,-0.7555224533401429,1.3213877194821835
1617033944961303000,-289.20069702148436,-1.347670161730051,-0.8112579306960105,1.4722183324187994
1617033944971319800,-289.19068017578127,-0.6321136619448662,-0.8748319927230477,0.931387700420618
1617033944981336800,-289.1806630859375,-0.11903203761577605,-1.0345721805632113,0.16548165410161017
1617033944991352800,-289.17064721679685,-0.06455693558454513,-1.1477958241611719,-0.38218028522133823
1617033945001369900,-289.16063012695315,-0.15305121159553528,-1.1249511012770235,-0.6619570115447044
1617033945011387000,-289.1506130371094,-0.6901169381022453,-0.7857533409528433,-0.5710393077790736
1617033945021404000,-289.14059619140625,-1.2895277693629263,-0.49341670052483677,-0.16127309649586677
1617033945031420000,-289.130580078125,-2.0078397053360937,-0.8177205508388579,0.35037703372538087
1617033945041437000,-289.1205629882812,-2.875941220760345,-1.3833897098869083,0.30181495513021944
1617033945051454000,-289.11054614257813,-2.922546320068836,-1.3857983784638344,0.2240256130069494
1617033945061470000,-289.10053002929686,-2.263921083295345,-1.40591601447165,0.5440238750815392
1617033945071487000,-289.0905129394531,-2.1140169375538824,-1.6590360584072767,0.8808411700099706
1617033945081503700,-289.0804963378906,-2.509612000143528,-1.7433963033534585,1.1983254034370183
1617033945091519700,-289.07048022460935,-2.5252152274668216,-1.6351901956565678,1.8017606679081917
1617033945101537000,-289.060462890625,-1.954091748535633,-1.719902761171758,2.2969255272746083
1617033945111553800,-289.0504462890625,-1.44603233628273,-1.705981933977455,2.023319014018774
1617033945121569800,-289.04043017578124,-1.6271698246777058,-1.3772688889190554,1.4833528898954391
1617033945131587000,-289.0304128417969,-2.1736837630093095,-0.5209975120201706,1.1743635130912065
1617033945141603800,-289.0203962402344,-2.0446949795246123,-0.03831891700029373,2.0006886645376682
1617033945151619800,-289.0103801269531,-1.1498960113108156,-0.8115611514262855,2.757171048951149
1617033945161636900,-289.00036303710937,0.4005471320390701,-1.2151777540385722,2.241496485519409
1617033945171654000,-288.9903461914063,1.7268810757517814,-1.4184385191753506,2.0637123992055653
1617033945181671000,-288.9803291015625,1.7824410504102706,-2.0910570638574657,0.4608581006169319
1617033945191687000,-288.97031298828125,1.5567548107147215,-2.2524830128274855,-1.3620739501357078
1617033945201704000,-288.9602961425781,0.910072525191307,-2.3654478593587873,-1.758281007143855
1617033945211721000,-288.9502790527344,0.8006687321424484,-2.4310510891258716,-2.3125842841774222
1617033945221733000,-288.94026684570315,0.8491887251615524,-1.45102576065585,-3.362937971240282
1617033945231750000,-288.93025,0.05178863942623138,-0.4397501383975148,-2.831878791671991
1617033945241767200,-288.92023291015624,-0.5885422312438487,-0.21315409038066863,-1.568585533761978
1617033945251783200,-288.910216796875,-0.8093418679416179,-0.28043431344926356,-1.7904501693427561
1617033945261800000,-288.9001999511719,-0.9580687865972518,-0.25735066724270583,-1.6011504172801971
1617033945271817000,-288.89018310546874,-1.3319243110656738,-0.25982290257513524,-0.5848784480392932
1617033945281833200,-288.88016674804686,-1.4362848492503166,-0.41242753944694993,0.03664367726445198
1617033945291850000,-288.87014990234377,-1.3612532814025877,-0.4922621236622333,0.2868237222254276
1617033945301867000,-288.8601330566406,-1.0565385131776333,-0.5077386558659375,0.8735872533589601
1617033945311883000,-288.85011694335935,-1.3778046032309532,-0.5367202740699053,1.382105515295267
1617033945321900000,-288.84009985351565,-1.9409587107181547,-0.5910013148337602,1.498562149465084
1617033945331917000,-288.8300830078125,-2.032761380624771,-0.7405534322671592,1.8439152175486087
1617033945341933000,-288.82006689453124,-2.227313646388054,-0.7228392041392624,2.0131261213064193
1617033945351950000,-288.8100498046875,-2.089763955307007,-0.678173986852169,1.8888591056466102
1617033945361967000,-288.8000329589844,-1.743558654308319,-0.7345704123347997,1.7956319558948277
1617033945371984100,-288.79001586914063,-1.2698667910814285,-0.7608341498821973,1.5816086814641952
1617033945381999900,-288.78000024414064,-0.7169675356268882,-0.8531775025367736,1.1831202355206012
1617033945392017200,-288.7699829101563,-0.5507482149004936,-0.9199678962618112,0.6612941637217998
1617033945402034000,-288.7599660644531,-0.6606710633873939,-0.850509744632244,0.11157704543471336
1617033945412050000,-288.7499501953125,-0.5571849699497222,-0.7016270508930087,-0.15840192497372627
1617033945422067200,-288.7399328613281,-0.5092354702949523,-0.31744799306988714,-0.3941945481419563
1617033945432084000,-288.729916015625,-0.4194926555275917,0.22262480629831552,-0.8081248933672904
1617033945442100000,-288.71990014648435,-0.07282908936738967,0.6958446680992841,-1.2854004602998494
1617033945452117000,-288.70988305664065,0.03784896140098572,1.1331088348999618,-1.8601725248664616
1617033945462134000,-288.6998659667969,-0.5260206008791923,1.5069421475365756,-2.2913918585449458
1617033945472150000,-288.68985009765623,-0.7926397394657134,1.613821098282933,-1.8220909237533807
1617033945482167000,-288.6798330078125,-0.832765998148918,1.7645996887713669,-1.3405430863291024
1617033945492184000,-288.6698159179688,-0.27965163863897324,1.6539523254022002,-1.1860136188745498
1617033945502200000,-288.6598000488281,-0.04317746294736862,1.4680173735976219,-0.9355155940055847
1617033945512217000,-288.64978295898436,-0.21064649147391318,1.4469810153096914,-0.4840910921663046
1617033945522233900,-288.63976611328127,-0.1560042161822319,1.3420716110706328,-0.3630769408226013
1617033945532250000,-288.62975,0.06959668331742286,1.0064344658374786,-0.5657558144181967
1617033945542267100,-288.61973291015624,-0.04331307202577591,0.7143120526820421,-0.8319885840356349
1617033945552284000,-288.60971606445315,-0.32280572071075436,0.6417091732859611,-1.1021861656308174
1617033945562300000,-288.5997001953125,-0.3278466374874115,0.6474164450168609,-1.443494342237711
1617033945572317200,-288.58968286132813,-0.4272083444714546,0.7771861497461795,-1.7066121947050095
1617033945582334000,-288.579666015625,-0.5613000040531159,0.8803875810235738,-1.7820511743098497
1617033945592351200,-288.5696486816406,-0.46640638239383697,0.9118059248551725,-1.7919944761753082
1617033945602367200,-288.5596328125,-0.4248948068320751,0.9765385092675686,-1.757313038894534
1617033945612384000,-288.54961596679686,-0.4222539369344711,0.9779740950286387,-1.644146093919873
1617033945622401000,-288.5395988769531,-0.4536953693807125,0.8506529524952172,-1.5178104552924632
1617033945632417000,-288.5295830078125,-0.21055179892778395,0.6704167968541384,-1.3836281948179006
1617033945642434000,-288.51956591796875,0.34962007787823673,0.5815992802381516,-1.2751491153985262
1617033945652451000,-288.509548828125,0.4673416174173355,0.4737836331635713,-1.4355951134204863
1617033945662467000,-288.4995329589844,0.20086977834701536,0.7838654813796281,-1.4816343955397604
1617033945672484000,-288.48951586914063,0.5513654700160027,1.38549457321167,-1.2713812872976065
1617033945682501000,-288.4794987792969,0.4747825810730457,1.4931354482412338,-1.231418694743514
1617033945692517000,-288.4694829101563,0.4169347877383232,1.371671215042472,-0.9679612350583076
1617033945702534100,-288.4594658203125,0.675279434454441,1.5538357083976269,-0.5230208345413208
1617033945712551200,-288.44944873046876,0.6272223827719688,1.4997884763896465,-0.44761517268419265
1617033945722567200,-288.4394328613281,0.8173264369547366,1.0649228951632976,-0.5524269617676735
1617033945732584000,-288.429416015625,1.0597218193888664,0.7193336802363395,-0.7355354579746722
1617033945742601200,-288.41939868164064,1.0951415078163147,0.69070496712327,-0.8635720553010702
1617033945752617200,-288.4093828125,1.0895675070762634,0.5415612843602895,-0.8764104940861464
1617033945762634000,-288.3993659667969,0.8546458215236663,0.16727204464972018,-1.092910387763381
1617033945772651300,-288.3893486328125,0.28187632895112036,-0.3230751853018999,-1.1754700130283833
1617033945782668000,-288.37933203125,-0.2936556140720844,-0.8219868299812078,-0.8229396006613969
1617033945792684000,-288.3693159179688,-0.8441361179471015,-1.3223083414584398,-0.3370844214320183
1617033945802701000,-288.359298828125,-1.3584709572076796,-1.611478919070959,-0.04023848688602447
1617033945812718000,-288.34928198242187,-1.6776549802899359,-1.6512375134855508,-0.0752460873812437
1617033945822734000,-288.3392658691406,-1.7884242164731026,-1.647104359203577,-0.41925417059659953
1617033945832751000,-288.32924877929685,-1.457942554306984,-1.5575778175354003,-0.6883896759182214
1617033945842768100,-288.31923193359376,-1.0501321532666683,-1.1610177093058824,-0.8876035037517547
1617033945852784000,-288.3092158203125,-0.8723124111175536,-0.9163625652462244,-1.3115022852838039
1617033945862801200,-288.29919873046873,-0.4093009318590164,-0.7306926941186189,-1.3257885847896336
1617033945872818000,-288.28918212890625,-0.06238017606735229,-0.5347200401633978,-1.4340724338978528
1617033945882834200,-288.2791657714844,0.4239408671081066,-0.3486550322383642,-1.3884656979769467
1617033945892851200,-288.2691486816406,0.9355494962751865,0.025527239966392515,-0.7455740369081497
1617033945902868000,-288.25913208007813,1.0978232942461967,0.35097441509664057,-0.2141091991484165
1617033945912884000,-288.24911596679686,0.9761772747397423,0.605472323256731,0.13336159174144266
1617033945922901200,-288.2390986328125,0.49602527558803555,0.4859966335266828,0.04684884493649005
1617033945932918000,-288.22908203125,0.2347580194234848,0.3606237024515867,-0.08419453299045562
1617033945942934000,-288.21906591796875,0.1935235072374344,0.40654958732426166,-0.05910217730998993
1617033945952951300,-288.2090485839844,0.35161212847828865,0.5381336479991674,0.21358897466659546
1617033945962968000,-288.1990319824219,0.1638169357597828,0.5043132114619017,0.4766460368573665
1617033945972984000,-288.18901586914063,-0.15422025537490844,0.3147989398658275,0.7335673727720975
1617033945983001000,-288.1789990234375,-0.16669395250082014,0.29786709428727626,0.958973041960597
1617033945993018000,-288.1689819335937,-0.01940846482515335,0.18568097704350947,0.901484145066142
1617033946003034000,-288.1589658203125,0.1277437518596649,-0.01684825894832611,0.6090525198310613
1617033946013051100,-288.14894897460937,0.25634558185338974,-0.10897533850371836,0.2648702490925789
1617033946023068200,-288.1389318847656,0.17932897766828537,-0.06691606593132018,-0.19557517907023428
1617033946033085200,-288.12891479492185,-0.014187515306472777,0.07488076120018959,-0.5782435400694609
1617033946043101200,-288.11889892578125,-0.06560206072330474,0.3059165452301502,-0.69430445291996
1617033946053118000,-288.1088820800781,-0.0033481413841247557,0.41503509159684177,-0.6993319256931543
1617033946063135200,-288.09886474609374,0.4018587991595268,0.47112931926250456,-0.6539730270534754
1617033946073151200,-288.08884887695314,1.0604559788823127,0.5841226612359285,-0.4711363335251808
1617033946083168000,-288.07883203125,1.0312789842367172,0.6661924571573734,-0.5055553204774856
1617033946093185300,-288.0688146972656,0.7588473599791526,0.6667728873938321,-0.8226531849354505
1617033946103201000,-288.05879907226563,0.5968365968585014,0.8524202544286846,-0.9982114118933677
1617033946113218000,-288.0487819824219,0.2484253102481365,1.0748515839815138,-1.029668041908741
1617033946123235000,-288.0387648925781,-0.32754736227989195,1.2496277206510304,-1.0057868155837058
1617033946133251000,-288.0287490234375,-0.783287389230728,1.297443364793062,-0.7834791124105454
1617033946143268000,-288.01873193359376,-1.01400402430892,1.0563900446176528,-0.24882512322068212
1617033946153285000,-288.00871484375,-0.9755179340481758,0.6277016907215118,0.3216980517297983
1617033946163300900,-287.99869921875,-0.7642658778965473,0.30925007356703277,0.5403542466580867
1617033946173318100,-287.98868188476564,-0.3989338516235351,0.5856266360580921,0.5952747543692588
1617033946183335200,-287.9786647949219,-0.307162745898962,1.0846832421660422,0.257301859664917
1617033946193351000,-287.9686491699219,-0.5497767395198345,1.4009937556385994,-0.43685237112939357
1617033946203368200,-287.9586318359375,-0.6069207684993744,1.8536507218822835,-0.7693570635557174
