time,seconds_elapsed,z,y,x
1615357654297139200,-0.04786083984375,-0.17688246129900215,0.2777151176184416,-0.8889892590217292
1615357654307072300,-0.037927734375,-0.07485504223704338,0.09903612829148768,-1.0394731043472885
1615357654317004300,-0.02799560546875,0.021562574119120836,0.411841848513484,-1.1882992455936967
1615357654326936000,-0.01806396484375,0.02058569191098213,0.8628595231175422,-1.244828211414814
1615357654336868000,-0.0081318359375,0.0533475593060255,0.9147551300495862,-1.1455009912222622
1615357654346801200,0.00180126953125,0.04344648914709687,0.6865268046557903,-1.0479372735708952
1615357654356733200,0.011733154296875,-0.10146467061266302,0.42567046737968917,-0.9031094081804156
1615357654366665200,0.021665283203125,-0.42145065772756934,0.14598025029599665,-0.7698759728632867
1615357654376597200,0.03159716796875,-0.7784194909334182,-0.08224982866346836,-0.4886702366501093
1615357654386529300,0.041529296875,-1.0351122787892817,-0.5587988348871469,0.03600128770768642
1615357654396462000,0.051462158203125,-2.059164965034276,-1.514418474766612,0.5146582625286653
1615357654406394000,0.06139404296875,-2.8191514120459553,-1.9603204137921333,0.8175846494995057
1615357654416326100,0.071326171875,-3.44097339707911,-1.891087887611985,1.0612390920840202
1615357654426258200,0.081258056640625,-3.4742648413062094,-1.4645032279968262,1.0813356853038072
1615357654436191000,0.09119091796875,-2.971556726953387,-1.024388055679202,1.0632891564816236
1615357654446123000,0.101123046875,-1.8956448202639817,-0.6228641875624656,0.9565664192102848
1615357654456055000,0.111054931640625,-0.23720654508676378,-0.31543489968180655,0.7515938817195594
1615357654465987300,0.1209873046875,1.3334580965042113,-0.14968845716416834,0.5084820215791463
1615357654475920100,0.130920166015625,1.9557985524535177,0.08291267648637295,0.3497255475467071
1615357654485852000,0.140851806640625,1.8086217858493328,0.32894261603057384,0.3766851584037766
1615357654495784000,0.150783935546875,1.0394050075471402,0.2877759083837271,0.44475156341399996
1615357654505716000,0.160716064453125,0.5339175281414762,-0.026623803031444546,0.35636688525732607
1615357654515649000,0.17064892578125,0.06529230065438896,-0.2846639138430357,0.23546876150872556
1615357654525581000,0.1805810546875,-0.3707247886946425,-0.28651334110200405,0.06558244270738214
1615357654535513000,0.19051318359375,-0.7027858655393123,-0.08827624934613704,-0.12220785464029758
1615357654545445000,0.200445068359375,-0.8958335719585419,0.13866378980278968,-0.3429158675318584
1615357654555377000,0.210376953125,-0.905398688161373,0.30520050591528414,-0.5767594389915466
1615357654565310000,0.22031005859375,-0.7934399499326944,0.39829263111054897,-0.7571802304845303
1615357654575242000,0.230241943359375,-0.5613911894679069,0.3952724065065384,-0.8876090567097067
1615357654585174000,0.240174072265625,-0.23086395286070183,0.3611731530278921,-0.9756572694536297
1615357654595106000,0.25010595703125,0.07457211537612601,0.33640812960565086,-0.9914753085713833
1615357654605039600,0.26003955078125,0.3050268846477382,0.32183775246143337,-0.9470200807731598
1615357654614971600,0.2699716796875,0.45665246562063694,0.2690788066983223,-0.8731871481254696
1615357654624903700,0.279903564453125,0.5177706589281559,0.19285364515185355,-0.7980454709667713
1615357654634835700,0.289835693359375,0.5107148951977492,0.13506722661554812,-0.72239131424129
1615357654644768800,0.299768798828125,0.48333296727538105,0.07987959240078926,-0.6684525110438466
1615357654654700800,0.30970068359375,0.4398872087806463,0.022345687320828436,-0.5983498509656637
1615357654664632800,0.3196328125,0.39165129339993,-0.039516017830371855,-0.4766634994488209
1615357654674564600,0.329564697265625,0.4061860147088766,-0.1691395920872688,-0.35220768321864304
1615357654684496600,0.33949658203125,0.49810500447154044,-0.23582301830649374,-0.21800854467451572
1615357654694429700,0.3494296875,0.6403285325825214,-0.2153641676455736,-0.07894757224768399
1615357654704361700,0.35936181640625,0.7949637984991074,-0.08717617914974689,0.04193272358328104
1615357654714293800,0.369293701171875,0.927133550107479,0.09879296718537807,0.17198387560248374
1615357654724225800,0.379225830078125,1.0552361984074115,0.20980711804032323,0.28960750772505994
1615357654734158800,0.389158935546875,1.121905596101284,0.21579379123449324,0.3982996453732252
1615357654744091000,0.3990908203125,1.1372896277159452,0.11540274120271206,0.464642003069818
1615357654754022700,0.409022705078125,1.1383838526934384,-0.06520166322886943,0.5063122763246297
1615357654763954700,0.41895458984375,1.1288123067498206,-0.12840426159501075,0.5174634196098894
1615357654773886700,0.42888671875,1.138711184951663,-0.1719634173363447,0.5308086754059419
1615357654783819800,0.43881982421875,1.1751403426826,-0.21125790137052536,0.5092319631636143
1615357654793751800,0.448751708984375,1.1015244868516922,-0.1792266863375902,0.49437078637927767
1615357654803683800,0.458683837890625,0.9907365459680557,-0.18210837925374507,0.478484065939486
1615357654813615900,0.468615966796875,0.874025644776225,-0.22009937947392463,0.4364484665036201
1615357654823548700,0.478548583984375,0.776847711572051,-0.19113748888373375,0.3675137542262673
1615357654833480700,0.488480712890625,0.7194026538193226,-0.08937105884552002,0.3107912385944277
1615357654843412700,0.498412841796875,0.7319009008646011,0.03526420560479164,0.22969233353175222
1615357654853344800,0.5083447265625,0.7835352265119552,0.044531800165772434,0.14766075072884557
1615357654863277600,0.518277587890625,0.8653075007915496,-0.10450608413517475,0.03539747659564018
1615357654873209600,0.528209716796875,0.9233680600941181,-0.3406868298381567,-0.08537672851234673
1615357654883141600,0.5381416015625,0.9329127180308103,-0.49879590934514995,-0.2060567525308579
1615357654893074000,0.548073974609375,0.9233166221678256,-0.7241741060048341,-0.22665924944616853
1615357654903006700,0.5580068359375,1.1680693813830614,-1.2266080795913934,-0.11151048300452529
1615357654912938500,0.5679384765625,1.353716456156969,-1.3472253405719994,-0.14050393777675926
1615357654922870500,0.57787060546875,1.2414853307276963,-0.9969681338340043,-0.33118476893417537
1615357654932802600,0.587802490234375,1.1661141556620598,-0.5746417161852121,-0.376120400660485
1615357654942734600,0.597734619140625,0.7044049911737441,0.07195815175175667,-0.1620652697868645
1615357654952667600,0.607667724609375,-0.3347299672603607,0.6308014103025198,0.25156287762150165
1615357654962599700,0.617599609375,-1.2608067017912863,0.8539473178654908,0.6883592077147215
1615357654972531700,0.62753173828125,-1.8811901784539222,0.8660276317596435,0.9953095529720186
1615357654982463500,0.63746337890625,-2.2111983778893944,0.7595838575601578,1.1410054333686828
1615357654992396500,0.647396484375,-2.127496012330055,0.6574795738697051,1.0731057632274925
1615357655002328600,0.65732861328125,-1.7609411662638186,0.5438794981747865,0.8493276952408254
1615357655012260600,0.667260498046875,-1.2359352953851221,0.43050504792928695,0.6146025551736355
1615357655022192600,0.677192626953125,-0.7555331208646296,0.32047172480523584,0.45191126244291663
1615357655032124700,0.687124755859375,-0.3952233066678047,0.23703823931515217,0.3371763374991715
1615357655042057700,0.6970576171875,-0.09049217182993888,0.19909984606504438,0.18322218571454285
1615357655051989800,0.70698974609375,0.16596561995996162,0.27751404208838937,0.002843260601907968
1615357655061921500,0.716921630859375,0.2326303232124075,0.31321020936965943,-0.2916729158222675
1615357655071853600,0.726853515625,0.03523731759786606,0.19451427184045314,-0.5825204867362975
1615357655081786600,0.73678662109375,-0.3444716090738773,0.10239362202584743,-0.7226337446950376
1615357655091718700,0.74671875,-0.697286683601141,0.0836029968380928,-0.6593706483133137
1615357655101650700,0.756650634765625,-0.8198013026356696,0.08430266954004764,-0.4259725190661847
1615357655111582700,0.766582763671875,-0.745925919085741,0.09542904371023178,-0.10722717966213821
1615357655121515800,0.776515869140625,-0.6564847176134586,0.028251111972332,0.2119933760382235
1615357655131447800,0.78644775390625,-0.6801520089268684,-0.11166355467438698,0.4346124832481146
1615357655141379600,0.796379638671875,-0.7982195854246615,-0.2047889976173639,0.6170160460561513
1615357655151311600,0.8063115234375,-0.9855272868871688,-0.25142741467356683,0.7869362671270966
1615357655161243600,0.81624365234375,-1.2139653825741261,-0.25712474953234193,0.9180534409426152
1615357655171176700,0.8261767578125,-1.4679261881828307,-0.279859143909812,1.0329197371810674
1615357655181108700,0.836108642578125,-1.6575988652110099,-0.37328736919164657,1.1390491847343742
1615357655191040800,0.846040771484375,-1.7335317658126352,-0.4537935690581798,1.1636427971124648
1615357655200972800,0.855972900390625,-1.7423253131210803,-0.49102819795310493,1.1649953807651996
1615357655210905900,0.86590576171875,-1.7257611318111419,-0.4618839365333318,1.1382177023462952
1615357655220837600,0.875837646484375,-1.6525883435726165,-0.3577829260677099,1.1101211964137851
1615357655230769700,0.885769775390625,-1.4725076707541942,-0.229140179541707,1.0514482043012976
1615357655240701700,0.89570166015625,-1.25615624563694,-0.16420739638209342,0.9651258655019104
1615357655250634800,0.905634765625,-1.0743232492584736,-0.1738163517266512,0.8549370595552027
1615357655260566800,0.91556689453125,-0.8830104038078337,-0.21914602427184582,0.7527741775453091
1615357655270498800,0.925498779296875,-0.7289783644814044,-0.284361131504178,0.6347711907163262
1615357655280430800,0.935430908203125,-0.6089479634780436,-0.2806798126429319,0.5303220974653959
1615357655290362600,0.945362548828125,-0.5381542523957789,-0.24611060356497763,0.4772250057891011
1615357655300295700,0.955295654296875,-0.5477999595541506,-0.18149463126957416,0.48216684610545635
1615357655310227700,0.965227783203125,-0.6048644204914569,-0.1843067660808563,0.5090848097778856
1615357655320159700,0.97515966796875,-0.6534628855742514,-0.22421908975243568,0.5062871418833732
1615357655330091800,0.985091796875,-0.6738216368615627,-0.2574982590198517,0.48235418537110086
1615357655340024800,0.99502490234375,-0.640374125289917,-0.281474177891016,0.41638226842209697
1615357655349956900,1.004956787109375,-0.5724456674456596,-0.3484393436610698,0.3680463997982442
1615357655359889000,1.014888916015625,-0.461149265583232,-0.410747039014101,0.3314356018900871
1615357655369820700,1.024820556640625,-0.34756497197933495,-0.46230596133768553,0.25924671012237666
1615357655379753500,1.03475341796875,-0.2837479680418968,-0.5221048887401819,0.2491923490978777
1615357655389685500,1.044685546875,-0.24924247184991835,-0.5593699127733707,0.34459669675827026
1615357655399617800,1.05461767578125,-0.24051336807981133,-0.6567436608105898,0.434805667732656
1615357655409549800,1.0645498046875,-0.2790614176608622,-0.7609405328661203,0.5448657327331602
1615357655419481900,1.07448193359375,-0.27876674556322395,-0.8612105868667363,0.6373753818653524
1615357655429414700,1.08441455078125,-0.2218167047858238,-0.8945990617275238,0.701768212929368
1615357655439346700,1.0943466796875,-0.14520466281361877,-0.9032423869103193,0.7979602038361132
1615357655449278700,1.10427880859375,-0.09608838440179825,-0.8803665382355451,0.8749462667524814
1615357655459210800,1.114210693359375,-0.09731712247915565,-0.7843044573187827,0.9028263534553348
1615357655469143600,1.1241435546875,-0.16761530512943862,-0.5969160918354988,0.8572234169267118
1615357655479075600,1.13407568359375,-0.4140975184857845,-0.34823593004345893,0.764104988246411
1615357655489007600,1.144007568359375,-0.8707518838025629,-0.07010872449278831,0.6074602822035551
1615357655498939600,1.153939697265625,-1.4192938208304344,0.19751228461265563,0.3897854995280504
1615357655508871700,1.16387158203125,-1.952193221437931,0.3984785090714693,0.17199936543256045
1615357655518804700,1.1738046875,-2.231656644028425,0.5567804808020591,0.017460253366827962
1615357655528736500,1.183736572265625,-2.0734872126363215,0.6944599357426167,-0.022563421724736688
1615357655538668500,1.19366845703125,-1.6380900087513028,0.7671686136007309,0.13044102811962366
1615357655548600600,1.2036005859375,-1.2315924438752233,0.8158657167524099,0.34004166380241513
1615357655558533600,1.21353369140625,-0.9265762084856629,0.8713958807945251,0.5501631084889174
1615357655568465700,1.223465576171875,-0.8409494507350027,0.8715373350918293,0.7992148800723254
1615357655578397700,1.233397705078125,-0.9785209152564406,0.8894646214485168,0.992030092909932
1615357655588329700,1.243329833984375,-1.2523624063119292,1.0285925216317175,1.1970635668076575
1615357655598262800,1.2532626953125,-1.5445970476701856,1.314001116362214,1.3701590569138526
1615357655608194000,1.263194091796875,-1.8758255826808512,1.6442442935973405,1.5719297296233474
1615357655618126000,1.2731259765625,-2.2667000464893876,1.9177339024752378,1.847913347274065
1615357655628058000,1.28305810546875,-2.755735463190079,1.9770956075042485,2.0938323737896978
1615357655637990000,1.292989990234375,-3.2115836266905067,1.7670675401896236,2.2815055475637314
1615357655647923000,1.3029228515625,-3.2560511294484136,1.3807517625987529,2.375655365118384
1615357655657855000,1.31285498046875,-2.8856682495266197,0.8993407032966613,2.42468959126994
1615357655667787000,1.322787109375,-2.4166835410773753,0.4313111036151647,2.5266934833258388
1615357655677719000,1.332718994140625,-2.1171111041769386,0.10894026719033717,2.687986453565955
1615357655687652000,1.342652099609375,-2.051081173430383,-0.031953473621606825,2.8806857849389313
1615357655697584000,1.352584228515625,-2.2925088798761366,0.03504851702749729,3.082037793844938
1615357655707516200,1.36251611328125,-2.903559003265202,0.2607639828175306,3.2330133682101962
1615357655717448000,1.372447998046875,-3.748423727747798,0.43386721783876414,3.2479870654582976
1615357655727381000,1.382381103515625,-4.496548910443485,0.3940940103769302,3.1418250308096405
1615357655737313000,1.39231298828125,-4.889928050549328,0.05804653077721596,2.900271944418549
1615357655747245000,1.4022451171875,-4.80724012272954,-0.35343700581789017,2.572512692953646
1615357655757177000,1.412177001953125,-4.35666463893503,-0.6232470494002104,2.3204105938889086
1615357655767109000,1.422109130859375,-3.620444705827534,-0.3028448826998472,2.454200494045019
1615357655777042200,1.432042236328125,-2.5991817964315413,0.5188227983295918,2.994916559752822
1615357655786974200,1.44197412109375,-1.98260384953171,1.0716291148036718,3.481764257150888
1615357655796906000,1.451906005859375,-1.9724831452727316,1.2507909192115068,3.726069272598624
1615357655806838000,1.461838134765625,-2.048888339561224,1.1670306859850883,3.8708898314654823
1615357655816771000,1.47177099609375,-1.8423440227091312,0.9498650218755006,4.167679651910066
1615357655826703000,1.481703125,-1.3900564742997288,0.8826192855983972,4.483989580860734
1615357655836635100,1.49163525390625,-1.0363047034442425,0.7707669303536414,4.4908781713306904
1615357655846567200,1.501567138671875,-0.7313046885371208,0.5387538257241249,4.108230853119492
1615357655856500200,1.511500244140625,-0.31954759569764135,0.32102351346909996,2.858705423799157
1615357655866432300,1.521432373046875,0.13684811868295071,0.27447861991524697,1.2800482856169342
1615357655876364000,1.531364013671875,0.5873590858738869,0.7101157700359821,-0.11045578631982207
1615357655886296000,1.541296142578125,1.017692284367606,1.7136574370414017,-1.5240211465008555
1615357655896228000,1.55122802734375,1.2890974151216446,2.9552555804938074,-2.931355064946413
1615357655906161200,1.5611611328125,1.1324186606787146,4.254696256583929,-4.229691871447861
1615357655916093200,1.57109326171875,0.1837666313221678,5.448696782559156,-5.321339984190463
1615357655926025200,1.581025146484375,0.5437047261297703,5.5628053922981024,-5.430949528944492
1615357655935957200,1.590957275390625,2.3657927272737025,4.559468307954073,-4.922992408022284
1615357655945890300,1.600890380859375,3.1728269027948377,3.3429198500841855,-4.4027176573187115
1615357655955822000,1.610822021484375,2.4976240407079455,1.9320558578163385,-3.892123758152127
1615357655965754000,1.620754150390625,1.5310978068888186,0.7101578556120395,-3.2659581909567117
1615357655975686100,1.63068603515625,1.1016543237764387,-0.21072072575390338,-2.638105109065771
1615357655985618200,1.6406181640625,1.25941963134706,-0.8073878112643956,-2.286824550629407
1615357655995551200,1.65055126953125,1.5666985509715974,-1.1836311076521873,-2.156780120611936
1615357656005483300,1.660483154296875,1.9316098676145075,-1.3240952248752116,-2.0124306863881647
1615357656015415300,1.670415283203125,2.239059759891778,-1.3901257401436566,-1.6952718855231999
1615357656025347000,1.68034716796875,2.251644370046258,-1.477200212484598,-1.127934208741039
1615357656035280000,1.69027978515625,2.2999570039249955,-1.2911387116909026,-0.563530247323215
1615357656045212000,1.7002119140625,2.2448899273499845,-0.9970517204642295,0.1283012396119535
1615357656055144200,1.710144287109375,1.768532936567068,-0.9487953468173742,0.9695055418908596
1615357656065076200,1.720076171875,1.5403440664008259,-0.9759300219804048,1.6778418811641633
1615357656075009000,1.730009033203125,1.6554215211719274,-0.8476683837264776,2.0762857573136686
1615357656084941000,1.739941162109375,1.993548583524674,-0.624370500472188,2.2478335795864464
1615357656094873000,1.749873046875,2.2641297576099633,-0.46567923716306686,2.101903744303435
1615357656104805000,1.75980517578125,2.352765195657313,-0.6508218695461749,1.9151416940249502
1615357656114737200,1.769737060546875,2.135267815375328,-0.5471849694609642,1.5298822936192153
1615357656124670000,1.779669921875,1.6724910216554998,-0.14100304640531539,0.7419334884487092
1615357656134602000,1.78960205078125,1.1001400467559694,0.21691724230647086,-0.3368929905131459
1615357656144534000,1.799533935546875,1.023177510845661,0.44436990715265273,-1.6015229038543999
1615357656154466000,1.809466064453125,1.5097411306053399,0.4004606227993965,-2.645768775561452
1615357656164399000,1.819399169921875,2.130823695448041,0.13184066578447817,-3.3839842664003372
1615357656174331100,1.8293310546875,2.4844667452320457,-0.2410322773873806,-3.8935657736539837
1615357656184263000,1.839262939453125,2.5243887135148046,-0.6340963601946831,-4.16551838222295
1615357656194195000,1.84919482421875,2.2328601745992898,-1.0238765990257264,-4.06001451922208
1615357656204127000,1.859126953125,1.7144409886345267,-1.4108371042609213,-3.6076609198391436
1615357656214060000,1.86906005859375,1.2959689083263277,-1.6261837362498044,-2.7713533035606144
1615357656223992000,1.878991943359375,1.038772847123444,-1.6160305910259485,-1.7457414051748812
1615357656233924000,1.888924072265625,0.7886021545127033,-1.484738791295886,-0.6964983097024261
1615357656243856100,1.898856201171875,0.535862780457735,-1.3488824601292608,0.2882284744568169
1615357656253789200,1.9087890625,0.21451281151324508,-1.2265274155706167,1.1751068788044154
1615357656263721000,1.918720947265625,-0.10331161365360021,-1.0732768820106982,1.8658067313611506
1615357656273653000,1.928653076171875,-0.3732122581288218,-0.9575579144656657,2.2780334875389934
1615357656283585000,1.9385849609375,-0.6493760546520352,-0.9111609049499034,2.417940117009729
1615357656293518000,1.94851806640625,-0.8547337920680642,-1.0644400800824165,2.272352080901712
1615357656303450000,1.9584501953125,-0.7651546434298158,-1.3852040658324956,1.8023535192348061
1615357656313382100,1.968382080078125,-0.5291159365460276,-1.701017735698819,1.1970537760660052
1615357656323314200,1.978314208984375,-0.41653292893916366,-1.8296277489989994,0.6957984908699989
1615357656333246000,1.988245849609375,-0.508464193661511,-1.7800895188480614,0.3811078336842358
1615357656343179000,1.998178955078125,-1.0143643820539117,-1.6319646577388047,0.1987523478016257
1615357656353111000,2.008111083984375,-1.7576752963356672,-1.431103062698245,0.09944719331040978
1615357656363043000,2.01804296875,-2.52957313041538,-1.062742043992877,0.025198884794861078
1615357656372975000,2.02797509765625,-3.335003377871215,-0.4044213431239128,-0.026706951270252466
1615357656382908200,2.037908203125,-4.114034570962191,0.4933130940198898,-0.04461144127324223
1615357656392840200,2.047840087890625,-4.931912796580791,1.4957710574418306,-0.00369739321321249
1615357656402772200,2.057772216796875,-5.5383162632077925,2.206111868405342,0.08282309850677848
1615357656412704000,2.0677041015625,-5.225079750353098,1.9814397741883991,0.06310717516764998
1615357656422636000,2.077635986328125,-3.9072850869268176,0.8018447901844978,-0.3130854139462113
1615357656432569000,2.087569091796875,-2.5435510946244,0.19437047945559024,-1.0146234713815152
1615357656442501000,2.097501220703125,-1.1264490847498179,1.0734230124831199,-1.6388611392542718
1615357656452433200,2.10743310546875,-0.31750936786830425,2.3466280080765483,-2.284456360193342
1615357656462365200,2.117365234375,0.17089973362758754,3.475852402758598,-2.8314249104246496
1615357656472298200,2.12729833984375,1.065504640574008,4.465890445068478,-3.0474305908441544
1615357656482230300,2.137230224609375,1.370304748994857,5.740784708923101,-3.2617578166574237
1615357656492162000,2.147162109375,0.25181203007698055,7.600494292452931,-3.8351401804313063
1615357656502094000,2.157093994140625,-1.693315490758419,8.37072404718995,-3.919189459732175
1615357656512026000,2.167026123046875,-0.1473638136088848,5.364531475663185,-2.747370078165829
1615357656521959200,2.176959228515625,2.8613343109980223,1.7596335907965897,-1.5983401821650565
1615357656531891200,2.18689111328125,3.8229268878072498,-0.1951204210400581,-1.3390771054297685
1615357656541823200,2.1968232421875,3.2569238206297157,-1.7410317661792039,-1.0671253736436366
1615357656551755300,2.20675537109375,2.7294781553834677,-3.0180139422237873,-0.7122372922345995
1615357656561688000,2.21668798828125,2.3113145565025506,-3.9190807386606927,-0.2466699910134077
1615357656571620000,2.2266201171875,2.005779119544476,-4.644216967695951,0.3274820419587195
1615357656581552000,2.23655224609375,2.0099790554523467,-4.9512429354727265,0.904562383467704
1615357656591484200,2.246484130859375,2.262334106364846,-4.663146124571561,1.5700773797549306
1615357656601416400,2.25641650390625,2.804141474440694,-4.063969102066755,2.332816924867034
1615357656611348500,2.266348388671875,3.785715639787912,-3.41001477971375,2.817798828393221
1615357656621280500,2.276280517578125,4.953349552363157,-2.650474176773429,3.0395050585418937
1615357656631212500,2.286212646484375,5.8593199029326435,-1.8521750963717698,2.8307427733793853
1615357656641144600,2.29614453125,6.050626318642497,-1.2257891644239425,2.5832673112019897
1615357656651077600,2.30607763671875,5.862718313199282,-0.6567044978439808,2.3258614066407084
1615357656661009700,2.316009765625,5.798503907442092,-0.07395604757070541,1.8604177317991852
1615357656670941400,2.32594140625,5.22056139614582,0.10393266816139221,1.4774619321607052
1615357656680873500,2.33587353515625,4.089726059135795,-0.2351367896080017,1.157955983647704
1615357656690806300,2.34580615234375,3.182513599550724,-0.35969372812509537,0.7756989799283445
1615357656700738300,2.35573828125,2.939935261765122,-0.3635615094691515,0.11253156968057156
1615357656710670600,2.365670654296875,2.046613380366564,-0.05924830778241157,-0.16444120513796806
1615357656720602600,2.3756025390625,0.03159220256116241,0.5774240403801203,0.42343423276022074
1615357656730534700,2.38553466796875,-2.489866850709915,1.1804337729156016,0.948182183355093
1615357656740467500,2.395467529296875,-5.212175845116376,1.4102753787249327,1.1404206192180513
1615357656750399200,2.405399169921875,-7.116416059768199,1.2838871331274508,1.1772376072227955
1615357656760331500,2.41533154296875,-7.4555416316390035,0.8947358398497104,1.3543866105034947
1615357656770263600,2.425263671875,-6.437464658802748,0.5403992548435926,1.5037692165888845
1615357656780196400,2.4351962890625,-4.849762921160459,0.32779461503922935,1.5119009389877318
1615357656790128400,2.44512841796875,-3.2483447928547857,0.08838964659273624,1.580140946999192
1615357656800060400,2.455060302734375,-1.799023936420679,-0.14639818344712258,1.8243012932792304
1615357656809992400,2.464992431640625,-0.7494144187886267,-0.49605683977007864,2.0137860465198756
1615357656819924500,2.474924560546875,-0.10898059920072554,-0.9119067548811435,2.115982830799371
1615357656829857300,2.484857177734375,0.3278793707132339,-1.2104916420489549,2.2195839289188384
1615357656839789300,2.494789306640625,0.6731342391192913,-1.167359187287092,2.1718004334807395
1615357656849721300,2.504721435546875,0.9439993447124958,-0.733463912397623,1.9408938287883997
1615357656859653400,2.5146533203125,1.040507415831089,-0.24430326188206672,1.6914913440711796
1615357656869586400,2.52458642578125,0.9311761765617876,0.20511808344125745,1.5585111528627573
1615357656879518500,2.5345185546875,0.6361234821081161,0.6234779355466366,1.4799688004150986
1615357656889450500,2.544450439453125,0.3431118650279939,0.9827081378132104,1.3379451787903904
1615357656899382300,2.55438232421875,0.09981040059961378,1.3051993857473134,1.1054536429941653
1615357656909315300,2.5643154296875,-0.25876433343291283,1.5076777683347462,0.828691296055913
1615357656919247400,2.574247314453125,-0.8405914310775697,1.4317103809416294,0.4945639708638191
1615357656929179400,2.584179443359375,-2.236008847888559,1.40375269895792,-0.045326165413856506
1615357656939111400,2.594111328125,-4.225142829841375,1.6355284877002239,-0.5046586638987064
1615357656949043500,2.60404345703125,-5.761267524981498,1.752745584848523,-0.28102658025398847
1615357656958976500,2.6139765625,-6.202567523169517,1.4809855762422084,0.43742783292979
1615357656968908500,2.623908447265625,-5.529349112898111,0.9596610242247581,1.329449153123796
1615357656978840300,2.63384033203125,-4.3092648821175095,0.5192798944473266,2.429455928888917
1615357656988772400,2.6437724609375,-3.326944574578106,0.20266016889512536,3.512703585293889
1615357656998705400,2.653705322265625,-2.8404797390177845,-0.3503378707587719,4.177783405034244
1615357657008637400,2.663637451171875,-2.5409555251732465,-0.9882365458458662,4.575367887875437
1615357657018569500,2.673569580078125,-2.4461314616188408,-1.2718676095098256,5.088270063984393
1615357657028501500,2.68350146484375,-2.8516528749391434,-1.0336088884890078,5.213229738083482
1615357657038433500,2.69343359375,-3.5506104143619535,-0.8212953405857085,4.670941893014311
1615357657048366600,2.70336669921875,-3.878689983822405,-0.9408458491176366,3.948732365080714
1615357657058298400,2.71329833984375,-3.518554064887762,-0.9438760105937719,3.0903403427660465
1615357657068230400,2.72323046875,-2.6313398527145386,-0.21826281169652936,2.4676868753448127
1615357657078162400,2.733162353515625,-2.124943697498739,0.49438393812179565,2.075572932869196
1615357657088095500,2.743095458984375,-1.9312319742128252,1.1941355505317448,1.608485582473874
1615357657098027500,2.753027587890625,-1.9037097610369325,2.731927886623144,1.6460219707943498
1615357657107959600,2.76295947265625,-2.5844202806293963,4.388516698008775,1.8567917963869869
1615357657117891600,2.7728916015625,-4.2561961397528645,5.174911405605077,1.558822264638543
1615357657127823400,2.7828232421875,-4.922373399341106,4.634145071014761,1.030162985818833
1615357657137756400,2.79275634765625,-2.631620423221588,3.397670261925459,0.8799711091771721
1615357657147688400,2.8026884765625,1.0621288805305957,2.2579490231484174,0.8338564237341284
1615357657157620500,2.812620361328125,3.315821999800205,1.7817074754387139,0.12473054151833057
1615357657167552500,2.822552490234375,4.038680931553245,2.1459838551789523,-1.0484916925832628
1615357657177485600,2.832485595703125,4.4518654268473385,3.2043174350798127,-2.2709856148540974
1615357657187417600,2.84241748046875,4.756204347497224,4.775989244419336,-3.4454414824038744
1615357657197349600,2.852349609375,4.1293221564650535,6.70786740758121,-4.58113507310003
1615357657207281400,2.862281494140625,2.2035132302142677,8.394207214108109,-5.553340229338407
1615357657217213400,2.87221337890625,-0.13385551273822785,8.390089257395267,-5.93791763882935
1615357657227146500,2.882146484375,-1.253203825572133,5.858436690357327,-5.572360571628809
1615357657237078500,2.89207861328125,-1.1716242973856628,2.6007576674461363,-4.727374266593158
1615357657247010600,2.902010498046875,-0.6646228697530925,0.2276958259522915,-3.7784436029583213
1615357657256942600,2.911942626953125,0.30683687494546175,-0.9550666821718216,-3.171082397215068
1615357657266875400,2.92187548828125,1.6093952446646989,-1.240391105750203,-3.071716306316852
1615357657276807400,2.931807373046875,2.736892231032252,-1.2299170580089092,-3.3852035790622232
1615357657286739500,2.941739501953125,3.5219062979251143,-1.3152654372096062,-3.667801208025217
1615357657296671500,2.95167138671875,3.919522052687406,-1.4013228414624928,-3.8635198872193692
1615357657306603500,2.961603515625,4.020631187860667,-1.4614181214630604,-3.950610433912277
1615357657316536300,2.971536376953125,3.774906076481938,-1.4374696751207112,-3.8072991105645895
1615357657326468400,2.98146826171875,3.47438437603265,-1.5067676677525044,-3.4230975486487147
1615357657336400400,2.991400390625,3.112799719594419,-1.5773346574068068,-2.851905680656433
1615357657346332700,3.001332763671875,2.8080060409143566,-1.6462246537595986,-2.1007664108365773
1615357657356265500,3.011265380859375,3.426265365029871,-1.4982126053750515,-1.764868276579678
1615357657366197200,3.021197265625,4.22861225951761,-1.1610527806192636,-1.6580188441887498
1615357657376129300,3.03112939453125,4.643011975820363,-0.8795505456775427,-1.476967572772503
1615357657386061300,3.041061279296875,4.815769758404791,-0.8651058407396077,-1.1483806383118034
1615357657395994400,3.050994384765625,4.843941959922016,-0.7719663692712784,-0.9736422033041715
1615357657405926400,3.060926513671875,4.784423895287514,-0.6510112546384335,-1.1313906328052281
1615357657415858400,3.0708583984375,4.447131676323711,-0.7712298716902732,-1.3675351381510494
1615357657425790500,3.08079052734375,3.8396301853269335,-1.07635088262856,-1.6563865668117999
1615357657435722200,3.09072216796875,3.2822292345389723,-1.6280810943037272,-1.9829916798055172
1615357657445655300,3.1006552734375,2.7282112041875717,-2.1125006877720356,-2.0552002991870046
1615357657455587300,3.11058740234375,2.0362387013465164,-2.3708885891079903,-1.9176687282845377
1615357657465519400,3.120519287109375,1.296802436541021,-2.335569438445568,-1.636544386744499
1615357657475451400,3.130451416015625,0.6337284036651253,-1.9957529617011547,-1.1730866250231862
1615357657485384400,3.140384521484375,0.015211013135313986,-1.4318027354001999,-0.5302274049192667
1615357657495316500,3.15031640625,-0.9807055658191441,-0.7152437805742025,0.23905367079079148
1615357657505248500,3.16024853515625,-2.1055121440589426,0.0010053776502609252,1.0450327843010425
1615357657515180300,3.17018017578125,-2.7095661249503493,0.624370500472188,1.718757682789862
1615357657525112300,3.1801123046875,-3.1843603964611886,1.0675637650609016,2.217526119606197
1615357657535045400,3.19004541015625,-4.400065681505203,1.0690484506607054,2.5177009063139555
1615357657544977400,3.199977294921875,-6.310833252099156,0.44046413188576694,2.3975614919781685
1615357657554909400,3.209909423828125,-8.923000786831974,-0.3625853579133749,1.9333622642397879
1615357657564841500,3.219841552734375,-10.508684170389175,-0.5445440995633601,1.482080970263481
1615357657574774500,3.2297744140625,-8.145912252241372,0.3958943377971649,0.9776204592853784
1615357657584706600,3.23970654296875,-5.1007788324236865,2.3025445362001657,0.4048804850682616
1615357657594638300,3.249638427734375,-5.248839396125078,3.750715638077259,-0.2551274382352829
1615357657604575000,3.259574951171875,-5.731858475145697,2.8975866508573294,-0.7183689268574118
1615357657614507000,3.269507080078125,-4.218043519230187,0.37825463621020317,-0.9548129996716975
1615357657624440000,3.279440185546875,-1.1656196501433849,-2.2898405374497175,-1.4288921086505055
1615357657634372000,3.2893720703125,1.1687737302601338,-4.230407618501782,-2.2799206164598464
1615357657644304100,3.29930419921875,2.3117425726562737,-4.147859683674573,-2.948069176121056
1615357657654236000,3.30923583984375,3.1302269474744793,-2.1351281146436927,-3.275736073127389
1615357657664169000,3.3191689453125,3.629252573922276,0.7513163799524307,-3.1259114223629236
1615357657674101000,3.32910107421875,4.230568362021446,3.9207431189149617,-2.577047998295724
1615357657684033000,3.339032958984375,5.123373526069521,7.388691032159328,-2.2009929179564116
1615357657693965000,3.348965087890625,6.005550328597426,10.981328570389747,-2.3620871507540344
1615357657703897000,3.35889697265625,5.840296053510904,14.03072081669569,-2.8785134093359113
1615357657713830000,3.368829833984375,3.7361996214687823,13.297629829263686,-3.2145290324926377
1615357657723762000,3.378761962890625,1.3416244518250227,7.8348899083048105,-2.705727569700777
1615357657733694000,3.38869384765625,-0.7344359723001718,1.8175310684919357,-1.6778946342647074
1615357657743626000,3.3986259765625,-0.1190735386699438,-2.0822055027514694,-1.882382310847938
1615357657753558800,3.408558837890625,1.4869874470055102,-3.8321073886066674,-2.4289383347555993
1615357657763490800,3.41849072265625,2.1212433816760776,-4.697378649041056,-2.426003158086538
1615357657773422800,3.4284228515625,1.8719564861625433,-5.668554169970751,-2.2640730589866638
1615357657783355000,3.43835498046875,1.304438922768831,-6.402479270139336,-2.17013016218096
1615357657793287000,3.448286865234375,0.9012918373644352,-6.497131484258174,-2.2054808770254253
1615357657803220000,3.458219970703125,0.7861585607528686,-5.9769105095684525,-2.055235955022275
1615357657813151700,3.46815185546875,1.0249392598211764,-4.605328726375102,-1.7031003871917723
1615357657823083800,3.478083740234375,1.5645651922047137,-2.843718867069483,-1.3483695421710609
1615357657833015800,3.488015869140625,2.2998440450698134,-1.0434469764143228,-0.9943512293338775
1615357657842948900,3.497948974609375,3.279211640283465,0.8064625131130218,-0.7909685913830995
1615357657852881000,3.507880859375,4.197639321365952,2.2916525553077456,-0.6315148192688822
1615357657862813000,3.51781298828125,4.690721529239416,3.0485470276534556,-0.417940457649529
1615357657872745000,3.527744873046875,4.527249461394548,2.9145465534865855,-0.08434796998649835
1615357657882676700,3.5376767578125,3.699442546957731,2.2582225793927906,0.2192579602137208
1615357657892609800,3.54760986328125,3.00663154746592,1.4840221674591303,0.3743503222480416
1615357657902541800,3.557541748046875,2.7289333809822796,0.861677619856596,0.5104480609551072
1615357657912473900,3.567473876953125,2.5701807428747414,0.11550386348962784,0.954668622764945
1615357657922406000,3.577406005859375,2.323207969522476,-0.6082447105795145,1.743834840901196
1615357657932339000,3.5873388671875,1.471698692458868,-0.971927216079831,2.3816455454438925
1615357657942271000,3.59727099609375,0.19376082312464712,-1.1687445041656495,2.727148251131177
1615357657952203000,3.607203125,-0.9771323835074901,-1.246258536478877,2.8323779733657837
1615357657962134800,3.617134765625,-1.77358320569396,-1.3120622572541236,2.7410467203631996
1615357657972066800,3.62706689453125,-2.3294588466107844,-1.3916396518379448,2.6610791574180124
1615357657981999900,3.636999755859375,-2.6728993590712546,-1.3975678728431462,2.6437141811192033
1615357657991932000,3.646931884765625,-2.7290637293636797,-1.3639672165364025,2.7679277130261064
1615357658001864000,3.656864013671875,-2.4597990447044373,-1.291259123200178,3.0331068819373845
1615357658011796000,3.6667958984375,-2.230056076963991,-1.0867337449550627,3.336199017396569
1615357658021729000,3.67672900390625,-2.3050480434536933,-0.7423340320736169,3.506783547595143
1615357658031661000,3.6866611328125,-2.770792747068405,-0.3558721240103245,3.363543535917997
1615357658041592800,3.6965927734375,-3.397987072789669,-0.007063362514972686,2.930097758361697
1615357658051524900,3.70652490234375,-3.8094343690276142,0.34032559531033035,2.428163258729875
1615357658061457000,3.716456787109375,-3.9394191778123377,0.7176905892044305,1.943227386302501
1615357658071390000,3.726389892578125,-3.8034289911329746,1.0743787057727574,1.5580281916514038
1615357658081322000,3.736322021484375,-3.428429849587381,1.33525082513988,1.3042179734945296
1615357658091254000,3.74625390625,-2.9645430487990376,1.488714709189534,1.205179068724066
1615357658101186000,3.75618603515625,-2.566715989373624,1.4923141949862242,1.2535758737549185
1615357658111119000,3.766119140625,-2.3314485591232774,1.440808464154601,1.4133283365547655
1615357658121051000,3.77605078125,-2.3371792117297647,1.3665636627703903,1.653959193534404
1615357658130983000,3.78598291015625,-2.4988906996428963,1.3702227697998284,2.041093009509891
1615357658140915000,3.7959150390625,-2.602817522585392,1.3327204298794268,2.4565990796193478
1615357658150847000,3.805846923828125,-2.5785449588552116,0.9909960736870765,2.765473890133202
1615357658160780000,3.815780029296875,-2.4277416723169387,0.3961602952569723,2.8389000686109065
1615357658170712000,3.825712158203125,-2.199303357434273,-0.2243015073388815,2.734124519884586
1615357658180644000,3.83564404296875,-2.0074680955447257,-0.7436895383358001,2.603167358936369
1615357658190575900,3.845575927734375,-2.0661644685328007,-1.042784713113308,2.468351768994331
1615357658200509000,3.855509033203125,-2.389787350845337,-1.1708932066321371,2.31568458828032
1615357658210441000,3.86544091796875,-2.9355744362071157,-1.2265198167860507,2.0757225704729554
1615357658220373000,3.875373046875,-3.4819966046020387,-1.2208417711496353,1.7872848371796308
1615357658230305000,3.885304931640625,-3.7082854863658543,-1.1747153952687979,1.4082700302518902
1615357658240237800,3.89523779296875,-3.6093326524436473,-0.7315116092860698,1.1120521644763648
1615357658250170000,3.905170166015625,-3.3178970525085925,0.38319092356860635,1.071705394910276
1615357658260102100,3.91510205078125,-3.42714390143007,1.4765198290050028,0.6362400942251086
1615357658270034000,3.925033935546875,-3.9364708494007585,2.757068757620454,0.40486119584590197
1615357658279966000,3.934966064453125,-5.315649079072475,4.48627330788374,0.6938628466323018
1615357658289898800,3.944898681640625,-6.587727700984478,5.6730584956526755,1.2929253028467296
1615357658299831000,3.9548310546875,-5.888277117347717,5.055552620252967,1.582986984080076
1615357658309763000,3.96476318359375,-3.9741070448338984,3.5098476113408803,1.4900892124131322
1615357658319695000,3.974695068359375,-1.5609399874448775,1.9983850637704133,1.2850401025548577
1615357658329627100,3.984627197265625,1.1350631838381289,0.8940887741178274,0.8509273855224251
1615357658339560000,3.994559814453125,3.3731139128178356,0.577866523450613,0.1772302518233657
1615357658349491700,4.00449169921875,4.944320442733169,1.0704565638929604,-0.7028571772098541
1615357658359424000,4.014424072265625,5.9474663884192704,2.213451125252247,-1.5962676136747003
1615357658369356000,4.02435595703125,6.637547086164355,3.7671950637131926,-2.3383754357770083
1615357658379288800,4.034288818359375,6.209559574013948,5.647056039389968,-3.0973002449065445
1615357658389220900,4.044220947265625,3.7454385744571685,7.759827360796928,-3.6842300725176926
1615357658399153000,4.05415283203125,0.2725596345514059,8.32213917224109,-3.622012978057563
1615357658409085000,4.0640849609375,-2.3108067531108856,6.332319692242145,-3.0334058648839592
1615357658419017000,4.074016845703125,-2.9683634838700295,3.2177345505356785,-2.4741125244781372
1615357658428949800,4.08394970703125,-2.206669502288103,0.46824937991201876,-1.9483757089763878
1615357658438881800,4.0938818359375,-1.3253937402531504,-1.385304019075632,-1.9485875981613991
1615357658448813800,4.103813720703125,-0.106472269641608,-2.1821552387565375,-2.4208812850281594
1615357658458745900,4.113745849609375,1.0820365270495413,-2.2491069605231284,-2.777868384543061
1615357658468679000,4.123678955078125,1.9963912596046924,-2.3498276809006926,-2.812872477906942
1615357658478611000,4.13361083984375,2.72002789773196,-2.240784537857771,-2.8568481054946777
1615357658488543000,4.14354296875,3.5211864592179656,-2.0290940902888774,-2.824180638384819
1615357658498474800,4.153474853515625,4.329192986902594,-1.7938029869019985,-2.5380019360646604
1615357658508407800,4.16340771484375,4.508451821944117,-1.5481868888556956,-1.8235940217927098
1615357658518339800,4.17333984375,3.653774436238408,-1.055531966483593,-0.9176321467906237
1615357658528272000,4.18327197265625,2.7778268834888933,-0.24829203925728796,-0.48274669182002544
1615357658538204000,4.193203857421875,2.648278712555766,0.522703439155221,-0.5385878215074539
1615357658548136000,4.203135986328125,2.7473230241537094,0.4690875843018293,-0.7388412215217948
1615357658558069000,4.213069091796875,2.7182734552800656,-0.2211409974813461,-0.8996955080837011
1615357658568001000,4.2230009765625,2.8154049189940094,-0.7728343842774629,-1.073004787071049
1615357658577932800,4.232932861328125,3.205941236889362,-0.9866992532759904,-1.312294604705274
1615357658587864800,4.24286474609375,3.5944694298326967,-1.0045867921441793,-1.7593556506380437
1615357658597796900,4.252796875,3.7264281690388916,-1.0141226822525262,-2.348003680343926
1615357658607725300,4.262725341796875,3.244077198538184,-1.2368489030987024,-2.9239626166075467
1615357658617657300,4.2726572265625,2.9178271825924513,-1.566398252850771,-3.3958813326820727
1615357658627589400,4.28258935546875,3.1538603365182873,-1.9038561837702987,-3.789902570083737
1615357658637521400,4.292521484375,3.1619045267641543,-2.1090356420099736,-3.97019630113095
1615357658647454500,4.302454345703125,2.9187638789206742,-2.22952080104351,-3.886559109762311
1615357658657386500,4.312386474609375,2.6087615256816146,-2.2826374742031095,-3.540196864636242
1615357658667318300,4.322318359375,2.149881447139382,-2.3137603422194717,-2.839352196292579
1615357658677250300,4.332250244140625,1.7080577173382043,-2.304385195630789,-1.8949404713869094
1615357658687182300,4.342182373046875,1.3506807417228817,-2.1374112571448087,-0.8000786572948098
1615357658697115400,4.352115478515625,0.7173647182509303,-1.6474837139099836,0.4632452880144119
1615357658707047400,4.36204736328125,-0.6528548366785049,-0.8715349970042705,1.9004437449783085
1615357658716979500,4.3719794921875,-3.0382559352636336,0.06956921078860759,3.446355674639344
1615357658726911500,4.381911376953125,-6.53112084762156,1.0187795681476592,5.010672445040941
1615357658736844500,4.391844482421875,-9.77600819349885,1.7436451635479926,6.238578747749329
1615357658746776300,4.4017763671875,-10.376219819748401,1.9504197820246219,6.79845018030405
1615357658756708400,4.411708251953125,-8.565212015545368,1.784436023619771,6.673040424349904
1615357658766640400,4.421640380859375,-5.734448491638899,1.8254016557365655,5.7034577255696055
1615357658776573400,4.431573486328125,-5.097781404173374,2.402840309163928,3.945787543800473
1615357658786505500,4.44150537109375,-6.59234893104434,2.6607471489846706,1.899933749629557
1615357658796437500,4.4514375,-6.912440716621279,1.8727672180235384,0.30742958014160393
1615357658806369500,4.46136962890625,-5.341641598463058,0.8985749796211719,-0.7213844752863049
1615357658816301300,4.47130126953125,-1.6804988254137336,0.4463303935706615,-1.4234259521991013
1615357658826234400,4.481234375,1.4287228895634412,0.832656108033657,-1.9730729278594255
1615357658836166400,4.49116650390625,3.2642426192104814,1.8685417092829941,-2.840760017263889
1615357658846098400,4.501098388671875,3.9855508143901823,3.192787740805745,-3.516684763884544
1615357658856030500,4.511030517578125,3.9192362214833496,5.189287721481919,-3.687805300655961
1615357658865963500,4.520963623046875,3.590021218252182,7.035383790200949,-4.099139491908252
1615357658875895600,4.5308955078125,3.1308576465934514,7.073643670490384,-4.279045392681658
1615357658885827600,4.54082763671875,3.152924516972899,4.599934758377075,-3.892763225099444
1615357658895759400,4.55075927734375,3.473216209036112,1.4714631301373242,-3.5046646557450294
1615357658905691400,4.56069140625,3.3664743286728855,-0.6701403180003166,-3.239186503887176
1615357658915624400,4.57062451171875,2.879720154777169,-2.016546743404865,-3.034415041926503
1615357658925556500,4.580556396484375,2.529026310187578,-3.1615275101453064,-2.7372408983394503
1615357658935488500,4.590488525390625,2.2276129215955733,-4.207183394780754,-2.3080133230000732
1615357658945420500,4.600420654296875,1.882775986340642,-4.689700954020023,-1.8126073483541607
1615357658955352600,4.6103525390625,1.855520315146446,-4.521943756201863,-1.3226824354678393
1615357658965285600,4.62028564453125,2.0497733057022094,-3.726110189130902,-0.7771779664397239
1615357658975217400,4.630217529296875,2.356764786687493,-2.5540385863691566,-0.2293330717653036
1615357658985149400,4.6401494140625,2.7613866208195685,-1.4211276121288536,0.22318287857249378
1615357658995081500,4.65008154296875,3.1828444389402866,-0.5856675525903702,0.5873471762403846
1615357659005014500,4.6600146484375,3.6077263862907882,-0.018142974933981895,0.8718526846513152
1615357659014946600,4.669946533203125,4.09954544236064,0.34469781904518604,0.9843832314185798
1615357659024878600,4.679878662109375,4.387820532438159,0.49474108099639413,1.0288628630056977
1615357659034810600,4.689810546875,4.492096314948797,0.48653205557763574,0.9209643599532544
1615357659044742400,4.699742431640625,4.498032719260454,0.4336906922280788,0.8473452892519533
1615357659054675500,4.709675537109375,4.061529892221093,0.29500995129048824,1.1014352011330426
1615357659064607500,4.719607421875,3.264500977885723,-0.040734745970368386,1.5260776406392453
1615357659074539500,4.72953955078125,1.7371879502326248,-0.30716508398652076,2.0864628679350017
1615357659084471600,4.739471435546875,0.09705867247236892,-0.4432563929527998,2.6222201421916482
1615357659094404400,4.749404296875,-1.4917980621576308,-0.615569354379177,2.9823879175692793
1615357659104336400,4.75933642578125,-3.065618573963642,-0.8369318856567144,3.0604701051592826
1615357659114268400,4.769268310546875,-4.817848025983571,-1.0409925689995287,2.8180715078547593
1615357659124200400,4.779200439453125,-6.051435881459713,-1.0246651190549134,2.4880250222355125
1615357659134132500,4.789132568359375,-5.747158335608243,-0.8290367484927177,2.4344550523504616
1615357659144065300,4.799065185546875,-4.520834918177128,-0.7392839968532323,2.5448890652298926
1615357659153997300,4.808997314453125,-3.332534649670124,-0.660917147102952,2.4645187667027115
1615357659163929300,4.818929443359375,-2.333797168076038,-0.49933659209311004,2.3332791355513036
1615357659173861400,4.828861328125,-1.4819044446527958,-0.3908084128350019,2.268282931766659
1615357659183794400,4.83879443359375,-0.7633645451426505,-0.3086965313374996,2.197743122380227
1615357659193726500,4.8487265625,-0.08876191397123039,-0.11313012009561062,2.1856650004431604
1615357659203658200,4.858658203125,0.49778117934465405,0.10782558394670486,2.1698614282421764
1615357659213590300,4.86859033203125,0.8602315857667475,0.30370646796524525,2.113727306957543
1615357659223522300,4.878522216796875,1.0094096091907472,0.42169864113926886,2.1295682885594664
1615357659233455400,4.888455322265625,0.9504068736672401,0.5711491978943347,2.0893739330761134
1615357659243387400,4.898387451171875,0.6060065762639045,0.815546567800641,1.8595124535225331
1615357659253319400,4.9083193359375,0.006455313619226217,1.0044979448169469,1.4348641687974333
1615357659263251500,4.91825146484375,-0.942088104263693,1.0556360113799572,0.887452843234688
1615357659273184500,4.9281845703125,-2.3911926875986156,0.9971195250034331,0.360418973659724
1615357659283116300,4.9381162109375,-4.126849628871679,0.9615431847095489,0.03731441613286733
1615357659293048300,4.94804833984375,-5.618095902365446,0.9283809198200702,0.08697904914245008
1615357659302980400,4.95798046875,-6.2530959334015845,0.8174725674271583,0.5783006770841777
1615357659312912400,4.967912353515625,-5.789952352195978,0.5079121127367019,1.4372666998945176
1615357659322845400,4.977845458984375,-4.852454644462466,0.14075754721164702,2.458961424836516
1615357659332777500,4.987777587890625,-4.018223249936104,-0.2660790403604507,3.435406410601735
1615357659342709500,4.99770947265625,-3.471098193968832,-0.8770926311314106,4.048920001494884
1615357659352641300,5.007641357421875,-3.062670245552063,-1.2687486007064581,4.239840632757544
1615357659362574300,5.01757421875,-2.9784286585494875,-1.2032061612159013,4.170983369630575
1615357659372506400,5.02750634765625,-2.985501957936585,-0.7870750910758971,4.025300056454539
1615357659382438400,5.0374384765625,-2.6506033561110494,-0.03761515264511108,3.967624697077274
1615357659392370400,5.047370361328125,-1.7407520724549888,1.0196896687299013,4.1959120591819286
1615357659402302500,5.057302490234375,-0.9466052894271909,1.6257342389166354,4.353443631061912
1615357659412235500,5.067235595703125,-0.755460786280781,1.701771184414625,4.16138727376759
1615357659422167600,5.07716748046875,-0.9038540890678762,2.063902953341603,4.037728745394945
1615357659432099300,5.087099365234375,-1.094477637080103,2.588950909796357,4.2841976608783
1615357659442031400,5.09703125,-1.5451206331528722,3.298872618564963,4.370084677000343
1615357659451964400,5.10696435546875,-2.7337024950802324,3.6667923232436177,3.715725865499675
1615357659461896400,5.116896484375,-4.663024544018507,3.5087376042723655,2.0648056012697515
1615357659471828500,5.126828369140625,-4.888686233794689,3.294212225538492,0.594625350549817
1615357659481760500,5.136760498046875,-1.6867489718496798,2.905319290935993,0.26920360212177036
1615357659491692500,5.146692626953125,2.2292145115733146,2.3107740198850633,0.14797025506943465
1615357659501625600,5.15662548828125,5.050951263937354,1.8701415456950663,-0.2541924954727292
1615357659511557400,5.166557373046875,6.416532929933071,2.083903538841009,-1.2278636326104402
1615357659521489400,5.176489501953125,6.7018778117775915,3.259766935101151,-2.5217130645647643
1615357659531421400,5.18642138671875,5.8774751528263085,5.182221436357498,-3.8272222469136117
1615357659541353500,5.196353515625,3.218560479965806,7.346710670042038,-4.845330783931911
1615357659551286500,5.20628662109375,-0.5966641629010438,7.965022601127624,-5.139447293514013
1615357659561218600,5.216218505859375,-2.3292134935475883,5.981555120503902,-4.855190499167144
1615357659571150600,5.226150634765625,-1.1849299152910708,3.070242142111063,-4.270616294771433
1615357659581082400,5.236082275390625,0.698521193832159,0.916850056502223,-3.6352135281533
1615357659591015400,5.246015380859375,1.3520803793877363,-0.6525929708719254,-2.9307343026995656
1615357659600947500,5.255947509765625,1.669456476265192,-1.6706605913579462,-2.5791774115398525
1615357659610880300,5.26588037109375,2.1858584771886465,-2.2221312753140925,-2.5063342936471105
1615357659620812500,5.2758125,2.6752885922953484,-2.500959907132387,-2.294431080110371
1615357659630744300,5.285744384765625,3.285938902711868,-2.5336978091299533,-1.9713231615826485
1615357659640677000,5.295677001953125,3.5392636754393574,-2.161594096764922,-1.480975347109139
1615357659650609200,5.305609130859375,3.705175245390832,-1.8451544039547443,-0.5192702498361468
1615357659660541200,5.315541259765625,3.607927461820841,-1.9447826529204844,0.6950386124134064
1615357659670473200,5.32547314453125,3.3305320776760574,-1.8672855717420578,2.1117542533189058
1615357659680406300,5.33540625,3.577855564162135,-1.5506003797382115,2.853587642394006
1615357659690338300,5.34533837890625,4.088656968599557,-1.383288003078103,2.8869723178625106
1615357659700270300,5.355270263671875,4.608886126595736,-1.4880793338954448,2.4803864901810884
1615357659710202000,5.3652021484375,4.690497365094721,-1.6681372103601693,1.8375842609614133
1615357659720134100,5.375134033203125,4.2878076680690045,-1.5256483093112707,0.907248992203176
1615357659730067200,5.385067138671875,4.107323675146699,-1.2018483168661593,-0.46640170621871946
1615357659739999200,5.394999267578125,4.113267093721032,-1.0364520029604434,-1.8698709120601416
1615357659749931300,5.40493115234375,4.115181110648811,-0.9218681769251823,-2.957524986730516
1615357659759863300,5.41486328125,4.2989182601481675,-0.8950362841010093,-3.8118645187839864
1615357659769796400,5.42479638671875,4.3598172577470535,-1.0741560029327868,-4.387138687653839
1615357659779728400,5.434728271484375,4.286602383932471,-1.366363171762228,-4.759258766631782
1615357659789660200,5.44466015625,4.064028723299503,-1.748618275785446,-4.877115038466453
1615357659799592200,5.45459228515625,3.729830670958757,-2.1657067927807567,-4.658304237498343
1615357659809524200,5.464524169921875,3.403089072103798,-2.440597500628233,-4.067818470971286
1615357659819457300,5.474457275390625,3.0212147840917107,-2.485601594480872,-3.121547966456413
1615357659829389300,5.484389404296875,2.4250275910526513,-2.139726548349857,-1.9905542240142822
1615357659839321300,5.4943212890625,1.6283391607180238,-1.392553259551525,-0.723122551125288
1615357659849253400,5.50425341796875,0.38912411300987004,-0.4522428324848413,0.6922177097737788
1615357659859186400,5.5141865234375,-1.494039411343634,0.38674189404845233,2.2503309493601322
1615357659869118200,5.5241181640625,-3.8354651746019717,0.8364151683062314,3.7679283464238047
1615357659879050200,5.53405029296875,-6.519069759821892,0.9279851985007523,4.947783734929561
1615357659888982300,5.543982177734375,-9.65653367281258,0.9768319392561912,5.74173747960329
1615357659898914300,5.553914306640625,-11.641564749491215,1.2839911780238151,6.560147620141506
1615357659908847400,5.563847412109375,-8.529981712210178,2.173554583671689,7.068653607118129
1615357659918779400,5.573779296875,-3.9503222646206617,3.6460090629339215,5.976792436146736
1615357659928711400,5.58371142578125,-5.7522986211061475,5.243378208109736,4.010188996562362
1615357659938643200,5.593643310546875,-9.064594200345873,5.31267503169775,2.5327552675828335
1615357659948576300,5.603576171875,-5.985498305171728,4.5198803939312695,1.5890262642443178
1615357659958508300,5.61350830078125,-0.03207359286993742,3.430870520737767,0.4969380065187812
1615357659968440300,5.6234404296875,3.6919630048573016,2.0712638374984262,-0.8719774800747633
1615357659978372400,5.633372314453125,4.766613513308763,1.647568469583988,-2.6633567469611763
1615357659988304400,5.643304443359375,4.2709751912117,2.1796353648900983,-3.822583481197059
1615357659998237400,5.653237548828125,2.9570100229457017,3.7574937539100643,-4.09395770535618
1615357660008169500,5.66316943359375,-1.7811795060418545,6.896407865709066,-4.995659584826231
1615357660018101200,5.673101318359375,-8.84137698111236,8.86150090073049,-5.30659541952312
1615357660028033300,5.683033203125,-0.8508150111891328,5.3088522585392,-4.1529143367156385
1615357660037965300,5.69296533203125,5.361135988005995,1.6356003838926554,-3.901763693156838
1615357660047898400,5.7028984375,5.230889897936582,-0.661193041434884,-3.911419702513516
1615357660057830400,5.712830322265625,4.255732029372454,-2.219150213676691,-3.697390875124931
1615357660067762400,5.722762451171875,3.851922096145153,-3.4577608657509087,-3.341366775423288
1615357660077694500,5.732694580078125,3.5511622030258176,-4.547409036847949,-2.9128219216510653
1615357660087627500,5.74262744140625,3.0727696147620676,-5.339556608882546,-2.3960469957619903
1615357660097559300,5.752559326171875,2.5653186897963285,-5.194951738592982,-1.8247510828733444
1615357660107491300,5.7624912109375,2.599226804617047,-4.255094900512695,-1.2639032065019011
1615357660117423400,5.77242333984375,3.1112370003223417,-2.8144945261508223,-0.6718726947508752
1615357660127355400,5.78235546875,3.911791750696301,-1.320855220040679,-0.1918541127204895
1615357660137288400,5.792288330078125,4.763844633117318,-0.22700667464435098,0.10180398556962608
1615357660147220500,5.802220458984375,5.585056971594691,0.4368418497353792,0.10763546820208429
1615357660157152500,5.812152587890625,6.207292798125743,0.6203109959483146,-0.00034501404538750646
1615357660167084300,5.822084228515625,6.627893707156181,0.6860510038375854,-0.24371742481812833
1615357660177017000,5.83201708984375,6.692218587550521,0.5648685101896525,-0.4329660312153399
1615357660186949400,5.841949462890625,5.657573926272988,0.4175602261602878,-0.14841113070473075
1615357660196881400,5.85188134765625,4.432182236734032,0.43371173501610755,0.16928966808244586
1615357660206813400,5.8618134765625,3.4713813948243852,0.16018471673727033,0.4475603737570345
1615357660216745500,5.871745361328125,2.795693964090943,-0.10318974083960056,0.6044079088956117
1615357660226678300,5.88167822265625,2.7205302942961453,-0.34006606759130953,1.0335849230915308
1615357660236610300,5.8916103515625,2.8373949247449635,-0.4489227481514215,2.4109818223044277
1615357660246542300,5.901542236328125,0.649139615547657,-0.33121640618145465,4.00692736441791
1615357660256474400,5.911474365234375,-2.3720681542813775,-0.34318040021955964,5.178369437104463
1615357660266406400,5.921406494140625,-5.964148058629036,-0.706376583507657,6.108167822507023
1615357660276339200,5.931339111328125,-9.493299505376815,-1.1952315290749072,6.4867912920296185
1615357660286271200,5.941271240234375,-10.423476076442002,-1.321483581072092,6.1321665377318855
1615357660296203300,5.951203369140625,-9.051197543156146,-0.9543196631968021,5.565080936014652
1615357660306135300,5.96113525390625,-6.835216607165337,-0.8515034318447112,4.90231728426218
1615357660316068400,5.971068359375,-4.549743032753467,-1.1515788498312234,4.130641130109131
1615357660326000000,5.981000244140625,-2.6485563604533673,-1.4211357954353094,3.4478409447610376
1615357660335932200,5.99093212890625,-1.0822248161632566,-1.627512354505062,2.8427111513316627
1615357660345864200,6.0008642578125,0.022374328893423077,-1.6338766288399695,2.36570446446836
1615357660355796200,6.010796142578125,0.718736371930316,-1.3748194499403237,1.9394266788452863
1615357660365729300,6.020729248046875,1.1667863558351992,-0.8954910421311855,1.5781506499648092
1615357660375661300,6.030661376953125,1.505943491888046,-0.40800913848280906,1.3439822669975459
1615357660385593300,6.04059326171875,1.6913339615523815,0.060848144194483755,1.1539976014107465
1615357660395525000,6.050525146484375,1.7236229507386684,0.6046148296445608,0.8876891362085938
1615357660405458200,6.060458251953125,1.4011412012852729,1.1763380280345677,0.5201648605883121
1615357660415390200,6.07039013671875,0.6879132905781269,1.737410068550706,0.2582774266988039
1615357660425322200,6.080322265625,-0.3307574103675783,2.2395558728456497,0.29575667800456285
1615357660435254300,6.090254150390625,-1.414509216902405,2.494979079157114,0.37177316523641346
1615357660445186300,6.100186279296875,-2.188531788051128,2.3698341116189954,0.7597269192926586
1615357660455119400,6.110119384765625,-2.9701579660713673,2.0390414838075634,1.6538044413641093
1615357660465051400,6.120051513671875,-3.7365854059159753,1.7143693847030401,2.7112702985197306
1615357660474983200,6.129983154296875,-4.616599185191094,1.2051374215394257,3.5582641439855096
1615357660484915200,6.139915283203125,-5.787476317471265,0.5418833559215068,3.9434307515412566
1615357660494847200,6.14984716796875,-6.638709700202941,0.0483890601158142,3.8685011827632785
1615357660504780300,6.1597802734375,-6.412343661549687,-0.17576573222875594,3.5065965005904434
1615357660514712300,6.16971240234375,-5.300248096323013,-0.3128413760572672,3.053484776316583
1615357660524644400,6.179644287109375,-3.857048645378649,-0.37305823661088944,2.517500123044848
1615357660534576400,6.189576416015625,-2.33459562497735,0.030506197422742843,2.115560075342655
1615357660544509400,6.199509521484375,-1.4242425292789935,0.6512018087744712,1.9046902965068817
1615357660554441200,6.209441162109375,-1.5620837506525218,1.2012012511342762,1.897772479942441
1615357660564373200,6.219373291015625,-1.9152821254089474,2.0181085858941077,2.573611009584367
1615357660574305300,6.22930517578125,-1.5822107390105724,2.799079514876008,3.5265330809429285
1615357660584237300,6.2392373046875,-1.3038159685648978,3.285049844917655,4.153940757153928
1615357660594170400,6.24917041015625,-1.536517639980465,3.3255577963948246,4.115267912149429
1615357660604102400,6.259102294921875,-2.1380524776577947,2.8485423417031766,3.2465701843976973
1615357660614033200,6.269033203125,-2.13772996770516,2.1885627677112818,1.9731115063041447
1615357660623965200,6.278965087890625,-0.5889197958519682,1.5753770935982465,1.0170730564907193
1615357660633898200,6.288898193359375,1.6785457916498183,0.9879805252581835,0.12525865704566239
1615357660643830300,6.298830322265625,3.916501828083396,0.9473901561945677,-0.8884905157193541
1615357660653762000,6.308761962890625,5.66463904235363,1.6098983718812465,-2.0182956328988073
1615357660663694000,6.318694091796875,6.525986991864443,2.8434821357041598,-3.1195494861155746
1615357660673626000,6.328626220703125,6.441537022808194,4.656126601198316,-4.195371960955858
1615357660683559200,6.33855908203125,3.602288579151034,7.035045936548709,-5.223579282662272
1615357660693491200,6.3484912109375,-2.125624227108806,8.643231074771284,-5.506033703762292
1615357660703423200,6.35842333984375,-4.005226990240812,6.939636182060838,-4.8773532311365
1615357660713355300,6.368355224609375,-1.4950494651690125,3.910736104163527,-4.113555263012647
1615357660723288300,6.378288330078125,0.9797779295802116,1.6392156517803669,-3.5596798560023304
1615357660733220000,6.38822021484375,1.7749118239492176,-0.08889525802731514,-2.949315961311757
1615357660743152000,6.398152099609375,2.0338553133413195,-1.450847627609968,-2.523888655038178
1615357660753084200,6.408084228515625,2.349167755687237,-2.2801970953136683,-2.417077508831024
1615357660763016200,6.41801611328125,2.731633287590742,-2.5367875918388365,-2.387792962157726
1615357660772949200,6.42794921875,3.4244907565727827,-2.2926193545132874,-2.4645506231456995
1615357660782881300,6.43788134765625,4.151462092080712,-1.9603344423174858,-2.520895318441093
1615357660792813300,6.447813232421875,4.518796982608735,-1.7770733858972787,-2.1796572844609616
1615357660802745000,6.4577451171875,4.271353961396217,-1.531516909083724,-1.3396461374893784
1615357660812677000,6.467677001953125,3.1450875397369265,-1.2507780597299336,0.049212651458382606
1615357660822610200,6.477610107421875,2.4438114942386746,-0.6930301952004432,1.0651906061887741
1615357660832542200,6.487542236328125,2.6954177726104853,-0.0168313078135252,1.323861708380282
1615357660842474200,6.49747412109375,3.021557606180012,0.08434241702854633,1.325338502934575
1615357660852406300,6.50740625,3.1225977677702903,-0.16233341920375824,1.0400257697939872
1615357660862339300,6.51733935546875,3.082137162566185,-0.41919688745141026,0.5703165464624762
1615357660872271400,6.527271240234375,3.1644550880298015,-0.5502870271295309,-0.09406067796647548
1615357660882203100,6.537203125,3.3292174879461527,-0.5857037929475307,-1.1155471669852732
1615357660892135200,6.54713525390625,3.3127851163223383,-0.8482733638823032,-2.250728424245119
1615357660902067200,6.557067138671875,3.1572765747025606,-1.2635872724205255,-3.109513245269656
1615357660912000300,6.567000244140625,3.0894112452223896,-1.786970510533452,-3.696359486250579
1615357660921932300,6.576932373046875,3.2794615233913063,-2.24654909273386,-4.037979797546566
1615357660931864300,6.5868642578125,3.5336744771301745,-2.4871324573099614,-4.1226901711046695
1615357660941796400,6.59679638671875,3.504176287706196,-2.656693489679694,-3.857560978814959
1615357660951728000,6.60672802734375,3.1596693150579926,-2.759479910415411,-3.3291035061776637
1615357660961661200,6.6166611328125,2.7161101397663354,-2.7006343382149933,-2.55621417684257
1615357660971593200,6.62659326171875,2.4073510645866394,-2.4260341377466914,-1.560879489429295
1615357660981525200,6.636525146484375,2.0302163723170756,-1.8531898263722657,-0.43502544796317816
1615357660991457300,6.646457275390625,1.2308189752846956,-1.0169500146329402,0.7568915497362613
1615357661001390300,6.656390380859375,-0.033119887052476406,-0.031926585614681244,1.9967130389049648
1615357661011322400,6.666322265625,-2.1358114207327366,0.9271762202054261,3.297215499007702
1615357661021254400,6.67625439453125,-5.5199698746562005,1.618204427933693,4.439904063157737
1615357661031186200,6.686186279296875,-10.01465328348875,2.062445155748725,4.983372350183129
1615357661041118200,6.6961181640625,-14.545869310426712,2.547406016486883,4.928285838255286
1615357661051051300,6.70605126953125,-12.717018391019105,2.8418559958070513,4.547184580442309
1615357661060983300,6.7159833984375,-6.009574761807918,3.6198037775754925,3.5055408540576694
1615357661070915300,6.725915283203125,-2.8012942683160302,5.092150704810023,1.577418536297977
1615357661080847400,6.735847412109375,-3.974718746991455,4.8239743999093765,-0.030016952601075172
1615357661090780200,6.7457802734375,-4.138569000498951,3.3232606253683565,-0.8037848183363676
1615357661100712200,6.755712158203125,-1.2100631875038146,1.7419295918017625,-1.5207783651873468
1615357661110644200,6.765644287109375,2.392824818845093,0.3273147225677967,-2.3611074920669197
1615357661120576300,6.775576171875,3.671247549086809,0.2968617166370153,-2.994626344634592
1615357661130508300,6.78550830078125,3.188462863343954,1.5337684874027966,-3.1422841727539894
1615357661140441000,6.795441162109375,2.488361706843972,3.732982412987947,-3.1607743536904453
1615357661150373000,6.805373046875,1.6004596585370598,6.652991323533654,-3.820100724470615
1615357661160305200,6.81530517578125,0.20821736463084817,8.18136818102598,-4.187367810459435
1615357661170237200,6.8252373046875,1.5966466761201619,6.123873341161012,-3.523012797862291
1615357661180169200,6.835169189453125,3.9005496411919593,2.519126262941956,-2.835850325651467
1615357661190102000,6.84510205078125,4.0169653588294985,0.02561550277173519,-2.6131901557788253
1615357661200034000,6.855033935546875,3.634201136240363,-1.5529975040078163,-2.530423609764874
1615357661209966000,6.864966064453125,3.441064582493901,-2.9340163931101557,-2.4023232995525
1615357661219898000,6.874898193359375,3.316644714359939,-4.095523347237706,-2.121270854204893
1615357661229831200,6.8848310546875,3.075914927050471,-4.817441783270239,-1.651298596023023
1615357661239763200,6.89476318359375,2.9728204632788895,-5.071296132829785,-1.1622533885806798
1615357661249695200,6.9046953125,3.028682635754347,-4.641482574295997,-0.6651848875500261
1615357661259627000,6.914626953125,3.0162878490835427,-3.6457051115512846,-0.19090382625833152
1615357661269559000,6.92455908203125,3.126974667680263,-2.33884743720293,0.30864670084640383
1615357661279492000,6.9344921875,3.4662697508990763,-1.0571516766399145,0.7363957280658185
1615357661289424100,6.944424072265625,3.9033570998281237,-0.06634089639186859,1.1268735937722028
1615357661299356200,6.954356201171875,4.29167661845684,0.62804071341753,1.3350458040870725
1615357661309288200,6.9642880859375,4.346348704364895,0.9873796367555856,1.3812632192522287
1615357661319221200,6.97422119140625,4.131314207065105,1.0354816966235636,1.3491380423255264
1615357661329153300,6.9841533203125,3.9055549021333453,0.9473837264537811,1.2426432685911655
1615357661339085000,6.9940849609375,4.233153702339529,0.6131149469643831,1.0156921235263348
1615357661349017000,7.00401708984375,4.089660592684149,0.1610439639151096,1.1466155283354222
1615357661358949000,7.01394921875,2.5672043574124572,0.07023147408962249,1.8137896900065242
1615357661368882200,7.023882080078125,0.6950619932889938,0.08419161038100718,2.6197902846962213
1615357661378814200,7.033814208984375,-1.1846505138278007,-0.058690089377760886,3.1470345821514725
1615357661388746200,7.043746337890625,-3.553013968372345,-0.4112520659267902,3.139918904927373
1615357661398678300,7.05367822265625,-7.115467965263128,-0.86888769736588,2.665285961458087
1615357661408610000,7.063610107421875,-8.830196830928324,-1.1124456938385963,2.368612168608606
1615357661418543000,7.073543212890625,-7.331807699942589,-1.1230869148403406,2.545035780224204
1615357661428475100,7.08347509765625,-4.849156187438965,-0.9744166948080062,2.851899835437536
1615357661438407200,7.0934072265625,-3.058604311287403,-0.9205950882494449,2.906860090637207
1615357661448339200,7.103339111328125,-1.9035843810915947,-0.8971844020456076,2.8450825566381215
1615357661458272300,7.113272216796875,-0.8864519956290722,-0.8769722196221351,2.9231305496975777
1615357661468204300,7.123204345703125,-0.18259762407541275,-0.904427212780714,3.0515590689510104
1615357661478136300,7.13313623046875,0.2728057182669639,-1.0446797330796718,3.0817122151523826
1615357661488068000,7.143068115234375,0.6300315949738026,-1.1521750621587037,2.98469970164299
1615357661498000100,7.153000244140625,0.9004115473985671,-1.0463111336737871,2.763981313487887
1615357661507933200,7.16293310546875,1.1331342616021634,-0.7849228814780712,2.4735581054657696
1615357661517865200,7.172865234375,1.1240473573703318,-0.5431833326041698,2.0268099248744544
1615357661527797200,7.18279736328125,0.6686052904527634,-0.26024434285759923,1.5694225691080093
1615357661537729300,7.192729248046875,-0.10540449427962302,0.053554480054974554,1.2913330652192234
1615357661547662300,7.202662353515625,-0.9833166981656104,0.4035018901914358,1.1006387900583445
1615357661557594400,7.212594482421875,-1.8101355514131485,0.8467851711511611,0.7978387694135308
1615357661567526100,7.222526123046875,-2.4236942966222763,1.197505319225788,0.48479237230345607
1615357661577458200,7.232458251953125,-2.8565654891610146,1.4620558348447084,0.3145921652473509
1615357661587390200,7.24239013671875,-3.1636253592073915,1.577172160321474,0.31747619625106455
1615357661597323300,7.2523232421875,-3.4494296752572056,1.2822528099238872,0.38085152083560825
1615357661607256300,7.26225634765625,-3.902788360029459,0.985993150833249,0.41583500980287785
1615357661617188400,7.272188232421875,-4.1634219944655895,1.0737819089233875,0.6451118213362992
1615357661627120400,7.282120361328125,-3.871321208620071,1.1692279037684201,0.9834187703005969
1615357661637052400,7.292052490234375,-3.071197250878811,1.0112257917672396,1.4064128580778836
1615357661646985500,7.3019853515625,-2.3567909440420567,0.6285644450306892,1.8479083788380026
1615357661656917200,7.311917236328125,-1.9469161578178404,0.19767244361042977,2.276673889623582
1615357661666849300,7.321849365234375,-1.7540343094848094,-0.12590367695093155,2.674923850636184
1615357661676781300,7.33178125,-1.5905926367782055,-0.22787235156297683,3.033788434460759
1615357661686714400,7.34171435546875,-1.1932267651237547,0.5210223542004824,3.656540393820405
1615357661696646400,7.351646484375,-0.8287282670654356,1.530847046998143,4.324181880742311
1615357661706578400,7.361578369140625,-0.9409130691349505,1.8522089986413717,4.518360052496194
1615357661716510500,7.371510498046875,-1.4162616135276853,2.119515534970164,4.639987951824069
1615357661726442200,7.381442138671875,-1.9857799953497945,2.43939046292603,5.0184594456553455
1615357661736375300,7.391375244140625,-3.4790929921150204,2.526424603256583,5.5816813576817506
1615357661746307300,7.401307373046875,-6.111036071419716,2.1420482692956924,5.75173397296071
1615357661756239400,7.4112392578125,-6.687961514627933,1.1099801805078984,5.042833423933386
1615357661766171400,7.42117138671875,-4.213566958338022,-0.1424573368668556,4.0844919578745955
1615357661776104400,7.4311044921875,-1.0760405015051364,-0.782140557283163,3.439879172101617
1615357661786036500,7.441036376953125,1.8065145844370125,-0.847300134935975,3.165222857531905
1615357661795968500,7.450968505859375,3.9603354168519376,-0.5912456449836492,2.7977915208920834
1615357661805900300,7.460900390625,5.610140559446811,0.22900749307274818,2.1657273971773683
1615357661815832300,7.470832275390625,7.007306281229853,1.3644237281322478,1.54053681249395
1615357661825765400,7.480765380859375,7.885871323001385,2.5341654266417026,0.9908546193897724
1615357661835697400,7.490697509765625,8.239967669510841,3.6204847455769773,0.5144347925037145
1615357661845629400,7.50062939453125,8.419950142651796,4.202878391063213,0.09403028282821178
1615357661855561500,7.5105615234375,7.8090049409419295,4.101984652206301,-0.23712708664238452
1615357661865493500,7.520493408203125,6.282549991422891,3.273409676006436,-0.443712904548645
1615357661875426600,7.530426513671875,3.628746085704863,2.209531905981898,-0.41909985681772227
1615357661885358300,7.5403583984375,-0.3292415989771485,1.1487532710164785,-0.6162459384664892
1615357661895290400,7.550290283203125,-3.9241412369206548,0.11206921286582947,-0.7094736727401614
1615357661905222400,7.560222412109375,-5.737424877101183,-0.8442688044160604,-0.45870910588949915
1615357661915155500,7.570155517578125,-3.495970477157831,-1.33922323590219,-0.5814294766291975
1615357661925087500,7.58008740234375,0.7495312501013278,-0.8640501942068338,-1.2211334475725888
1615357661935019500,7.59001953125,3.680977500462532,-0.4791571428954601,-1.6305004304051398
1615357661944951600,7.59995166015625,5.500782359105348,-0.27367607136070726,-1.8978624963134527
1615357661954883300,7.60988330078125,6.160190855211019,-0.32380876027345656,-1.7945196107387542
1615357661964816400,7.61981640625,6.240601778009533,-0.4266705843329429,-1.4140522669151425
1615357661974748400,7.62974853515625,6.328493411952257,-0.5506003308624029,-0.8273650158882141
1615357661984680400,7.639680419921875,6.33492023012936,-0.9731307466506958,-0.25681203032135963
1615357661994612500,7.649612548828125,6.205442201822996,-1.552550344762206,0.1931146341755986
1615357662004545500,7.659545654296875,6.164675891670584,-1.9723340921908616,0.45914428243637084
1615357662014477600,7.6694775390625,6.121820500284433,-2.0547242061078546,0.5671683115646243
1615357662024409600,7.67940966796875,6.0026259655833245,-1.7135457933604716,0.5448541884258389
1615357662034341400,7.68934130859375,5.522798960602283,-1.1304261716872452,0.3010296499714255
1615357662044273400,7.6992734375,4.2629783472388985,-0.698450466683507,-0.3097767277896404
1615357662054206500,7.70920654296875,2.750445540088415,-0.5120370837122201,-1.5558201602131128
1615357662064138500,7.719138427734375,1.7226877157151699,-0.34027474190592766,-2.578440037176013
1615357662074070500,7.729070556640625,1.0187743074506521,-0.05524433283805847,-3.2329145840108393
1615357662084002600,7.73900244140625,0.5202876101851464,0.3820119429171085,-3.601459727111459
1615357662093934600,7.7489345703125,0.007459960617125034,0.8481184655815363,-3.5349262307569385
1615357662103867600,7.75886767578125,-0.5031210790678858,1.1934481527894734,-3.101521954254806
1615357662113799400,7.76879931640625,-1.2908572644010186,1.6210715078026054,-2.474142627355456
1615357662123731500,7.7787314453125,-2.373689618003368,2.1883049935579297,-1.7795216558322309
1615357662133663500,7.78866357421875,-3.058058952364325,2.6377351067095995,-1.0695043777346611
1615357662143596300,7.79859619140625,-2.7844042160525917,2.6812118448644875,-0.4104641304194927
1615357662153528600,7.808528564453125,-1.8155711665958165,2.1112702691942453,-0.03900689926445484
1615357662163460600,7.818460693359375,-1.4874384056434033,1.2454589105337857,0.04284633129686117
1615357662173392600,7.828392578125,-1.9467992534399032,0.14287994619309902,-0.3002329466357827
1615357662183324400,7.838324462890625,-2.341010168194771,-0.8499252227425574,-0.7609408251270652
1615357662193257200,7.84825732421875,-2.1924457466244696,-1.5620219374626874,-0.770557086995244
1615357662203189200,7.858189208984375,-0.750271547074616,-1.881304160222411,-0.5240504698500037
1615357662213121500,7.86812158203125,0.7616659245312214,-1.5929033979386091,0.42757483969628807
1615357662223053600,7.878053466796875,0.7791688479959964,-1.2353782460242508,2.4388579634845255
1615357662232985600,7.887985595703125,-0.13889043816551566,-1.6701964809775351,5.252301519277691
1615357662242918400,7.89791845703125,-0.08594692961573601,-2.305312247347832,7.014532140830159
1615357662252850400,7.907850341796875,0.6810073105819523,-2.5040771623700855,7.3601277854979035
1615357662262782200,7.9177822265625,1.2790847012817859,-1.9372429050654172,6.959467840734124
1615357662272714500,7.927714599609375,1.4396647009469568,-0.22757015374600886,5.874960539656877
1615357662282647300,7.937647216796875,0.889330912066251,1.9680518848270177,4.231462680512666
1615357662292579300,7.947579345703125,0.31821094026640057,4.107948529046774,2.8434204686447977
1615357662302511400,7.957511474609375,-1.0050107166446745,6.926123205015063,2.367531387634575
1615357662312443400,7.967443359375,-5.89037788901925,11.38586214171648,2.5956565449148417
1615357662322375400,7.97737548828125,-3.297546338397264,9.624452188897132,1.6703475798860192
1615357662332308500,7.98730859375,0.31285613523498174,4.1363247287034985,-0.15669862818717956
1615357662342240300,7.997240234375,1.410516347873956,0.11091185952425002,-1.3471166195005178
1615357662352172300,8.00717236328125,1.8598557140022516,-2.1868343364834786,-1.8806749224081634
1615357662362104300,8.017104248046875,2.1014257515281436,-3.57545843989253,-2.2367919610902667
1615357662372037400,8.027037353515626,2.4189076468676327,-4.620091411221027,-2.3123916842147705
1615357662381969400,8.036969482421876,2.600724934220314,-5.527797791802882,-2.3773526705555614
1615357662391901400,8.0469013671875,2.7243776173740626,-6.147808343499898,-2.4605834730803964
1615357662401833500,8.05683349609375,2.9806945576548576,-6.313776319813728,-2.3763195281155407
1615357662411765200,8.06676513671875,3.504825399264693,-5.5369484819859265,-1.9700316604673862
1615357662421698300,8.0766982421875,4.057228103373944,-4.031690634274483,-1.4147794121459125
1615357662431630300,8.08663037109375,4.351377346181869,-2.252156995743513,-0.9027028732061385
1615357662441562400,8.096562255859375,4.394486420068144,-0.5189718514114618,-0.46472091352492567
1615357662451494400,8.106494384765625,4.771290857470035,0.9329986427485942,-0.07968260852396487
1615357662461426400,8.116426513671875,5.430880555361509,1.8039760058701038,0.2892562100693583
1615357662471359500,8.126359375,5.7897284803122275,1.9426023862719535,0.6464294798061251
1615357662481291500,8.13629150390625,5.586358117321133,1.78313195528388,0.843946002202481
1615357662491223300,8.146223388671874,5.067111540621519,1.6202099225372075,0.8927766686059534
1615357662501155300,8.1561552734375,4.518397461897134,1.1921207035779953,0.7902015525333583
1615357662511088400,8.16608837890625,3.862291514468193,0.48114101018905636,0.6513036617137491
1615357662521020400,8.1760205078125,3.21077581743896,-0.2997369798123836,0.5118757556706667
1615357662530952400,8.185952392578125,2.663427766370773,-0.9649234747976064,0.3837621475853026
1615357662540884500,8.195884521484375,2.1407757651418446,-1.3504635918408632,0.3506085043936968
1615357662550816500,8.20581640625,1.7058289353728293,-1.3542986399590968,0.3367294705145061
1615357662560749600,8.21574951171875,1.211194894947484,-1.09585871617496,0.3588881108306348
1615357662570681300,8.225681396484376,0.5745137424239889,-0.7179980477184057,0.40062925736457106
1615357662580613400,8.23561328125,-0.27361818542731925,-0.21140695445239543,0.36106077869459985
1615357662590545400,8.24554541015625,-1.1066741246998308,0.4380138161242008,0.3945423386663198
1615357662600477400,8.2554775390625,-1.6328770964086055,1.1165595588982105,0.4634739822037518
1615357662610410000,8.265409912109375,-1.9564742597579954,1.7151257560282944,0.47514951468929645
1615357662620342000,8.275342041015625,-2.2231740623652936,2.1758248666912317,0.4457612153805792
1615357662630274000,8.285274169921875,-2.5702000320971012,2.49705646995306,0.3767744806550443
1615357662640206000,8.2952060546875,-2.964346649444103,2.6539655260205266,0.3540403785385191
1615357662650139100,8.30513916015625,-3.2841678013861175,2.6216858891844748,0.3328850700460374
1615357662660071200,8.3150712890625,-3.94325656401813,2.328038458418846,0.2861845475390553
1615357662670003200,8.325003173828126,-4.728678042668104,1.8140134157598018,0.3370072645425796
1615357662679935000,8.33493505859375,-4.447331290549039,1.234440088391304,0.41953444884270424
1615357662689867000,8.344866943359374,-3.564160800808668,0.6899521029293537,0.4077582324616611
1615357662699800000,8.354800048828125,-2.9370345718875526,0.2999953384876251,0.4105459634840488
1615357662709732000,8.364732177734375,-2.738409065335989,-0.013019056048989295,0.5133808995366096
1615357662719664000,8.3746640625,-2.632880652415752,-0.22742168518602845,0.7439749311484396
1615357662729596200,8.38459619140625,-2.4181053905740377,-0.41184360207915305,1.19910091785416
1615357662739529200,8.394529296875,-2.184083868731558,-0.7524585357248783,1.9010770744457839
1615357662749461200,8.404461181640626,-1.9024011626563966,-1.2122469612836837,2.6063226080968973
1615357662759393000,8.41439306640625,-1.545630336240679,-1.5057885935872792,3.228713040667772
1615357662769325000,8.424324951171876,-1.2547007861316204,-1.4870523289352655,3.760348558819294
1615357662779257000,8.434257080078124,-1.016066217535734,-1.299770930957794,4.185269084614515
1615357662789190100,8.444190185546875,-0.7762824789047241,-1.0570265889555215,4.553649977064133
1615357662799122200,8.4541220703125,-0.5070493584275245,-0.8478133451551199,4.810924948722124
1615357662809054200,8.46405419921875,-0.3265817321181297,-0.8177092987924813,4.805080606608093
1615357662818986200,8.473986328125,-0.36716976309418675,-0.9268746069103478,4.585054000109434
1615357662828918000,8.48391796875,-0.4527987858671695,-0.38587037191092965,4.656351057603955
1615357662838851000,8.49385107421875,-0.4604946741320193,0.4488812470972538,4.917722943186759
1615357662848783000,8.503783203125,-0.6250913620926439,0.49131519820094105,4.473434869098663
1615357662858715100,8.513715087890626,-0.8223508409880101,0.28167116176784035,3.5807530391693114
1615357662868647200,8.523647216796874,-1.2173102360226213,0.43049043488204475,2.8339252028077837
1615357662878580000,8.533580078125,-2.0246016011752186,0.9251882612586021,2.5211200671076774
1615357662888512300,8.54351220703125,-2.9863059677958486,1.5671043552935122,2.5373686065971848
1615357662898444300,8.5534443359375,-5.586766698122024,2.065285347610712,2.2529595442980526
1615357662908376000,8.5633759765625,-10.550904186481237,2.4852292540371415,1.5765939220421015
1615357662918308000,8.57330810546875,-9.29968247463703,2.130692762544751,1.3254697280988097
1615357662928241000,8.583240966796875,-3.5002269655585287,1.375166071420908,1.3905502491660415
1615357662938173000,8.5931728515625,1.5433996545791626,0.512210686713457,1.7563357182949781
1615357662948105200,8.603105224609376,4.662279863131046,0.17489362556934357,1.6417722043953835
1615357662958037200,8.613037353515624,5.77928073605597,0.8392559446901082,0.9497127539232373
1615357662967970000,8.622969970703124,6.107323772898316,2.100041603693366,0.18488544275164603
1615357662977902000,8.632902099609375,6.179558403503894,3.6776468947350978,-0.4007327177390456
1615357662987833900,8.642833740234375,5.8090539430290455,5.312289831772446,-0.7472460617735982
1615357662997766100,8.65276611328125,5.029222247210145,6.804830821251869,-1.1618883546605705
1615357663007698200,8.6626982421875,2.5071289511561394,7.494987506842612,-1.808602788887918
1615357663017631000,8.672630859375,-0.14888006339073181,6.608489918506145,-2.452253451630473
1615357663027563000,8.68256298828125,-0.9707568571262061,4.908300450325012,-2.983138151414692
1615357663037495000,8.6924951171875,-0.6706307318657636,3.058492083084583,-3.206776810930669
1615357663047427000,8.702427001953126,-0.5801058268100023,1.2587789953559636,-3.1179408818751573
1615357663057359000,8.712359130859374,-0.6269713306203484,-0.1561339800417423,-3.0202155439212914
1615357663067292000,8.7222919921875,0.3349855494566262,-1.054293364599347,-2.9362293929845094
1615357663077224000,8.732223876953125,1.2430631014384328,-1.4746049352943897,-2.6762381481051443
1615357663087156000,8.742156005859375,2.1896929407849908,-1.450126327598095,-2.5159257133349775
1615357663097088000,8.752087890625,2.9904823766976594,-1.2855688026040792,-2.58200737426877
1615357663107020000,8.76202001953125,3.4232387106850743,-1.6573381684482096,-2.2249852034404873
1615357663116953000,8.771953125,3.4541336151644586,-2.1397703874915837,-1.5535732580691575
1615357663126885000,8.781885009765626,2.8474896177798508,-2.4153385562092065,-0.3283139627382159
1615357663136817000,8.79181689453125,2.3351263708531853,-2.4836270795375106,0.8572942902058363
1615357663146749000,8.8017490234375,2.295856144477427,-2.4684102211832997,1.6132053044721484
1615357663156682000,8.811681884765624,2.659494810836017,-2.574973237848282,2.0357330899119375
1615357663166614000,8.821614013671875,3.3972269020721315,-2.548815883284807,2.0547057936683295
1615357663176546000,8.831546142578125,3.8072669618606567,-2.410279519253969,1.932804338096082
1615357663186478000,8.84147802734375,3.728555828717351,-1.9802169543951749,1.4723045493975282
1615357663196410000,8.85141015625,3.6146497558131814,-1.379783794349432,0.6250383167311548
1615357663206343200,8.86134326171875,3.0901866135090588,-0.8971756342172622,-0.7232149055838585
1615357663216275000,8.87127490234375,2.7366376717492935,-0.5752122095495462,-2.327512096457183
1615357663226207000,8.88120703125,2.79192350564152,-0.3360620926469564,-3.6323970094278453
1615357663236139000,8.891138916015626,2.928514288562536,-0.29936697745621205,-4.648914770123362
1615357663246072000,8.901072021484374,2.7928774453654883,-0.27295652491450306,-5.351923923024535
1615357663256004000,8.911004150390625,2.4075766900360582,-0.37587504759728907,-5.56743480566442
1615357663265936100,8.92093603515625,2.266804822038114,-0.6679501144796609,-5.353849922651052
1615357663275868200,8.9308681640625,2.084211289615929,-0.787715142545104,-4.747819673250615
1615357663285800000,8.940800048828125,1.7351769026711583,-0.7697299885213374,-3.6547152242198586
1615357663295733000,8.95073291015625,1.1906298804983495,-0.5479325729578733,-2.3469696611210704
1615357663305665000,8.9606650390625,0.2915703322306275,-0.040519057393074036,-0.9751061383768915
1615357663315597000,8.97059716796875,-1.002865959700942,0.5962310321807861,0.45789019072204823
1615357663325529000,8.980529052734376,-2.1864275092482566,1.2415391067415475,1.847189709174633
1615357663335461000,8.990461181640624,-2.8164307549104093,1.861512833559513,3.074785046237707
1615357663345394200,9.000394287109375,-3.9144039790213108,2.256384842571616,3.9406589487403627
1615357663355326200,9.010326171875,-6.080235859486461,2.18459327955842,3.987000428676605
1615357663365258000,9.020258056640625,-7.88257929571867,1.588024393725395,3.31109438675642
1615357663375190000,9.03018994140625,-7.019069784259796,1.0122966358691454,2.9510762489825484
1615357663385123000,9.040123046875,-3.5587604030698534,1.3471540289014576,2.9330650837346908
1615357663395055000,9.05005517578125,-1.6127423631355164,1.9914315913707017,2.6909227992787956
1615357663404987100,9.059987060546876,-2.479505031171441,1.5684510937273501,2.614018131035566
1615357663414919200,9.069919189453126,-2.505945002068579,0.09883855989277363,2.8927459328278897
1615357663424851200,9.079851318359376,-0.5933090072542428,-1.347433430364728,2.9146251716807483
1615357663434784300,9.0897841796875,1.3467455942310391,-1.5248931070297955,2.507213122308254
1615357663444716000,9.099716064453125,2.1094886464744804,-0.7446002234399318,1.8353592783883212
1615357663454648000,9.10964794921875,1.5243559314131736,-0.058013797551393506,0.9527163196533918
1615357663464580000,9.119580078125,0.4883091482527554,0.5449971040278673,0.0670443684861064
1615357663474512100,9.12951220703125,-0.1112000288158655,2.0877520309627053,-0.45205812356770037
1615357663484445200,9.139445068359375,-3.186308315658569,5.556004480111598,-0.8587821906760335
1615357663494377200,9.149377197265625,-5.072689048492908,7.966227300742268,-0.5506330640882253
1615357663504309200,9.159309326171876,0.5133079804308712,5.621291483536362,-0.17943740647882223
1615357663514241000,9.169240966796876,4.0001726294606925,2.0962100627064704,-0.9796700852915644
1615357663524174000,9.179174072265624,4.104544858083129,-0.4046867160618305,-1.7442258860453963
1615357663534106000,9.189106201171874,3.3648750767827034,-2.084147868990898,-2.0095994084849953
1615357663544038100,9.1990380859375,3.014410364773869,-3.2246915300667283,-2.128887758949399
1615357663553970200,9.20897021484375,2.688455240121484,-3.946030704906583,-2.103333338715136
1615357663563902200,9.218902099609375,2.312451013186574,-4.229620267516374,-1.8787503840863704
1615357663573835000,9.2288349609375,2.1726959210157393,-3.8833652821570634,-1.535032515989244
1615357663583767300,9.238767333984375,2.2150709815390406,-2.9379812050879,-1.116995027706027
1615357663593699000,9.248698974609376,2.475617960605025,-1.765347292268276,-0.6367886680185795
1615357663603631000,9.258631103515626,2.7761037129580974,-0.8304407700717449,-0.2189002328172326
1615357663613566500,9.26856640625,3.1047908929228782,-0.23692367302477357,0.09431377594470977
1615357663623499500,9.27849951171875,3.509570547965169,-0.027588264149427413,0.24161183084100482
1615357663633431600,9.288431640625,3.8567069923341273,-0.10932020641863345,0.1997777453266084
1615357663643363300,9.29836328125,4.063783224105835,-0.17802607837617396,-0.048533144761621946
1615357663653295400,9.30829541015625,4.177364010578394,-0.1854448302000761,-0.255876064645499
1615357663663228200,9.318228271484376,4.05554964876771,-0.10249708240032196,-0.2498714174032211
1615357663673160200,9.32816015625,3.6256618559539318,-0.06505787084400654,-0.1277099957205355
1615357663683092500,9.338092529296874,3.1032161909520624,-0.2295119354635477,-0.10259104429408908
1615357663693024500,9.3480244140625,2.4835493381261826,-0.5022673848479986,-0.16219254942834377
1615357663702956500,9.35795654296875,1.520004165944457,-0.6693687491059302,-0.12685761667490006
1615357663712889300,9.367889404296875,0.17523031017780302,-0.648095074930787,0.07035422368645668
1615357663722821000,9.377821044921875,-1.3304828800857067,-0.5866045411795378,0.2980915506929159
1615357663732753200,9.387753173828125,-2.7738474584639072,-0.5243459456652403,0.5564306444510817
1615357663742685400,9.397685546875,-4.0200609867572785,-0.4498036226391792,0.7627858684718608
1615357663752618200,9.4076181640625,-4.759600419676303,-0.4246855479955673,1.0403688841432333
1615357663762550300,9.41755029296875,-4.548091173893213,-0.34855858612656593,1.480080151835084
1615357663772482300,9.427482421875,-3.659677522802353,-0.25820436146259307,1.9034534481883048
1615357663782414300,9.437414306640624,-2.6485399938404557,-0.42811552244424816,2.1660477151729167
1615357663792346000,9.44734619140625,-1.6490309433519839,-0.7412193488299846,2.250490962227434
1615357663802279400,9.457279541015625,-0.7622961121935397,-1.0182698650598525,2.2311840580806135
1615357663812211200,9.467211181640625,-0.07607325892038642,-1.121775247719884,2.1531652911156414
1615357663822143200,9.477143310546875,0.5301449873328209,-1.0596692124187945,2.0712764047190544
1615357663832075300,9.4870751953125,1.1258603981416673,-0.9170493784666061,2.049975550276041
1615357663842007300,9.49700732421875,1.4618822318434714,-0.6925859585642814,2.0663848332852126
1615357663851940400,9.5069404296875,1.5958534799158572,-0.42999008414447304,1.9494354471623896
1615357663861872400,9.516872314453124,1.6888789696156978,-0.005384615647792816,1.7786255837753413
1615357663871804200,9.52680419921875,1.4596680629253387,0.581035216614604,1.6077878094680607
1615357663881736200,9.536736083984374,0.7498385624848306,1.0606365961462259,1.4170720531277359
1615357663891669200,9.546669189453125,-0.3063095631357282,1.4847750316530466,1.1594270791135728
1615357663901601300,9.556601318359375,-1.6982234288051723,1.9891618928730486,0.8099896643258631
1615357663911533300,9.566533203125,-3.287810834063589,2.422128362479806,0.5720787338294089
1615357663921465300,9.57646533203125,-4.674018231719732,2.5152783553421494,0.4793817454315722
1615357663931397400,9.5863974609375,-5.588605603986978,2.154122737970948,0.5731074923552573
1615357663941330400,9.596330322265626,-5.7673149884521955,1.4515782799720762,0.8813523344025015
1615357663951262200,9.60626220703125,-5.323972670781612,0.7054606377065181,1.4124594447657466
1615357663961194200,9.6161943359375,-4.664809966130554,-0.012796937730908392,2.1938775329932567
1615357663971126300,9.626126220703124,-4.130326365071535,-0.7695417724728584,3.03271496001035
1615357663981059300,9.636059326171875,-3.741291683910787,-1.2115092946588992,3.6573990564763545
1615357663990991400,9.645991455078125,-3.4844507197558876,-1.0362088418543338,3.983618969544768
1615357664000923400,9.65592333984375,-3.180855603210628,-0.4187339461147785,4.0600764785423875
1615357664010855400,9.66585546875,-2.566669519883394,0.4062333609819412,4.194076075926422
1615357664020787200,9.675787109375,-1.603662400101125,1.2974457028806208,4.339443162760138
1615357664030720500,9.685720458984376,-0.6151715872332454,1.4975690467745064,4.052968984624743
1615357664040652300,9.69565234375,-0.35334582040309903,1.1115928764015435,3.411925581771135
1615357664050584300,9.705584228515624,-0.8881003473579883,1.0425953280210494,2.7733412625074383
1615357664060516400,9.715516357421874,-1.8152479259908199,1.4070903189480304,2.3780124496385455
1615357664070448400,9.725448486328125,-2.716888138401508,2.1398136421114207,2.5100951074853537
1615357664080381400,9.73538134765625,-4.053928185045719,2.659412685510516,2.545682261434197
1615357664090313500,9.7453134765625,-5.79778143838644,2.5442577815890313,1.981220286218822
1615357664100245200,9.755245361328125,-5.8178176797211165,2.077866596764326,1.178761748050153
1615357664110177300,9.76517724609375,-3.089613197535276,1.2873007409632204,0.7236810617908835
1615357664120110300,9.7751103515625,0.5660767169356345,0.3538958555012941,0.8292340246304869
1615357664130042400,9.78504248046875,3.11605229164958,-0.11879647529423236,0.6666001611754298
1615357664139974400,9.794974365234374,4.457628228157758,0.14357494271993637,0.012282850728929042
1615357664149906400,9.804906494140624,5.378064326453209,1.1426841802358627,-0.8308999120160937
1615357664159838500,9.81483837890625,6.30054917397201,2.5819769791305065,-1.5319778045937418
1615357664169771500,9.824771484375,6.612778555610776,4.264464786404371,-1.9357053202345966
1615357664179703300,9.834703369140625,5.993969196397066,5.808356608414649,-2.3232345652684567
1615357664189635300,9.84463525390625,3.2059745546370744,7.166054827684164,-2.8624253211051225
1615357664199567400,9.8545673828125,-0.7499366160318255,6.98125764773786,-3.146110745304823
1615357664209499400,9.86449951171875,-3.1295866037443276,4.937805946272611,-2.9772593225091692
1615357664219432400,9.874432373046876,-2.7141584211766716,2.912292637079954,-2.85903567866683
1615357664229364500,9.884364501953126,-0.37207141753062606,1.155324466100335,-2.84699715808779
1615357664239296500,9.894296630859374,0.8645910230852663,-0.15254735372662542,-2.8968779180660844
1615357664249228300,9.904228271484374,1.6075608688443899,-1.0662941835165023,-2.9851725798517466
1615357664259161600,9.91416162109375,2.2721689794197677,-1.5409300495952367,-2.8569129874244332
1615357664269093400,9.92409326171875,2.6863775570645925,-1.6542589071333407,-2.6757041873589156
1615357664279025400,9.934025390625,3.077145930150151,-1.7539865248203277,-2.3722660149410366
1615357664288957400,9.94395751953125,3.5481861098244782,-1.959255999431014,-1.9924992206022143
1615357664298889500,9.953889404296875,3.799759362709522,-2.1213222921311856,-1.2444324900954962
1615357664308822300,9.963822265625,3.580306172184646,-2.040583452552557,-0.32299305997639893
1615357664318754600,9.973754638671876,3.130135177537799,-1.8120634507358073,0.3643701955035329
1615357664328686300,9.983686279296874,2.921565492337942,-1.7579682879328726,0.7400123111277819
1615357664338618400,9.993618408203124,3.040955841872096,-1.921912649464607,0.8736141413658857
1615357664348550400,10.00355029296875,3.2022949893414974,-1.980696262344718,0.7701213259264826
1615357664358483200,10.013483154296875,3.1854496530026197,-1.740548366576433,0.41723377068489786
1615357664368415200,10.023415283203125,2.8991709974393247,-1.4963994184732436,-0.10445669203549623
1615357664378347500,10.033347412109375,2.296281676413119,-1.266012453740835,-0.8929866580948234
1615357664388279600,10.043279541015625,1.9940797677919266,-1.094846324262023,-2.215968368770182
1615357664398212400,10.05321240234375,1.9655752655804155,-1.1507488287478684,-3.5301012948185204
1615357664408144100,10.06314404296875,2.100474734413624,-1.414472830414772,-4.470730870836973
1615357664418076200,10.073076171875,2.4472262711182236,-1.7379980975717304,-5.080991597414016
1615357664428008200,10.08300830078125,2.6673522463381287,-1.9220389061927794,-5.3028737686514855
1615357664437940500,10.0929404296875,2.53269652313292,-1.9229232878118752,-5.156587228885293
1615357664447873300,10.102873291015625,2.231692299863696,-1.709059587857127,-4.718685640963912
1615357664457805300,10.112805419921875,2.0222718430534004,-1.426584123969078,-4.087154162821173
1615357664467737300,10.1227373046875,1.9762454204156994,-1.1425105772346258,-3.1415067586407064
1615357664477669000,10.132669189453125,1.8169404091224073,-0.691771719571948,-1.8399711560979484
1615357664487601400,10.142601318359375,1.1246885048180817,0.0665671063631773,-0.20556495042592285
1615357664497534200,10.1525341796875,-0.22061960395574567,0.8973369622588158,1.684512591099739
1615357664507466200,10.16246630859375,-2.8267233086049557,1.6181494828760623,3.779269240127504
1615357664517398300,10.172398193359374,-6.507293981832265,2.2665444175362586,5.9090241373002526
1615357664527330300,10.182330322265624,-9.583809212863445,2.9286925677388904,7.63604432926178
1615357664537263400,10.192263427734375,-10.207312867373227,3.6312522233068942,8.513347388273477
1615357664547195400,10.2021953125,-7.464253345882892,4.351764299672841,7.7605206037580965
1615357664557127200,10.212127197265625,-5.332877861770987,5.117789003935456,5.796496659272909
1615357664567059200,10.22205908203125,-4.483424640454352,4.6268239343464375,3.557157644048333
1615357664576991200,10.2319912109375,-4.03127474694997,2.1565648704260587,1.728881017397344
1615357664586924300,10.24192431640625,-2.882709984242916,-1.0963766025692223,0.39293168859928845
1615357664596856300,10.251856201171876,-0.9077037502333521,-3.223897749340534,-0.8382201719015836
1615357664606788400,10.261788330078126,0.7572650592237711,-3.657620005750656,-1.996897455561161
1615357664616721000,10.271720947265624,1.600498090851307,-2.640257318663597,-3.1179473116159437
1615357664626652700,10.281652587890624,1.82470315207839,-0.4490378989636898,-3.5354219053193923
1615357664636585700,10.291585693359375,1.9454216814763843,1.6784540217131376,-3.301562003779411
1615357664646517800,10.301517822265625,2.375937689191103,3.7991485373347995,-3.277847366192937
1615357664656449800,10.31144970703125,2.3218811048328876,6.271748026901483,-3.613284312678873
1615357664666381800,10.3213818359375,1.771637916845083,7.537537777802347,-3.4587317566096782
1615357664676315000,10.33131494140625,2.2976667010307312,7.077078905636072,-3.0111113232284783
1615357664686247000,10.341246826171876,2.9083652345031497,5.28872775439918,-2.6596163913890716
1615357664696179000,10.351178955078124,2.2660253620982167,2.2574819901585577,-2.543310563866794
1615357664706110700,10.36111083984375,1.4744856928288936,-1.1353437543451785,-3.051315907844901
1615357664716042800,10.371042724609374,1.9233838910609482,-3.321412951675057,-3.752243286035955
1615357664725975800,10.380975830078125,2.2492688730865718,-3.3409640398412943,-3.6742674814298746
1615357664735907800,10.390907958984375,2.2503765420675275,-2.887490204256773,-3.1937641846224665
1615357664745839900,10.40083984375,1.9122785596787928,-2.7037878338098524,-2.7513924655497073
1615357664755772000,10.41077197265625,1.4136533307254313,-2.564742935734987,-2.32476747392416
1615357664765704000,10.420703857421875,1.1066180105984211,-2.238456387171149,-1.7831193880632519
1615357664775637000,10.430636962890626,1.1030524270713329,-1.6741361585140226,-1.1944248888671398
1615357664785568800,10.44056884765625,1.434160112181306,-1.008608302745223,-0.7044570136219263
1615357664795500800,10.450500732421874,1.8537743482619522,-0.4578267700970173,-0.3455193645611405
1615357664805432800,10.460432861328124,2.2557002213083206,-0.03842413094043731,-0.0673711162224412
1615357664815366000,10.470365966796875,2.752914560550451,0.34737142216861244,0.10736848782896995
1615357664825298000,10.4802978515625,3.164530783614516,0.5625590642035008,0.19880378572791813
1615357664835230000,10.49022998046875,3.3592823713421818,0.598487871196866,0.2509536596819758
1615357664845162000,10.500161865234375,3.4363340468406673,0.5290969395846128,0.29514380680322644
1615357664855093800,10.51009375,3.5957583005994556,0.394644629997015,0.478929763880372
1615357664865026800,10.52002685546875,4.057029658192396,0.1361357326298952,1.0715499120876193
1615357664874958800,10.529958740234376,3.75509604511857,-0.41837855680584907,1.8045464992344378
1615357664884891000,10.539890869140624,2.0351403847157954,-0.9869348155975342,2.2651342584773895
1615357664894823000,10.549822998046874,0.2630804430663585,-1.2367232308924196,2.5749776217624545
1615357664904755000,10.5597548828125,-1.3620505692601204,-1.324366443032026,2.703378083965182
1615357664914687700,10.569687744140625,-2.8238439537763593,-1.327608201432228,2.7222780147463084
1615357664924620000,10.5796201171875,-4.016827411663532,-1.3599310928881168,2.777666724491119
1615357664934551800,10.5895517578125,-4.909467156016826,-1.406580031338334,2.866861257725954
1615357664944483800,10.59948388671875,-5.3046261652767654,-1.4566308871865272,2.9309342091858386
1615357664954416600,10.609416748046876,-4.866684829866886,-1.36496090374887,2.983789016538858
1615357664964348700,10.6193486328125,-3.946425257182121,-1.264263564246893,2.9763538981020448
1615357664974281000,10.629281005859376,-2.9986265201866624,-1.2427414682686329,2.8046207823902365
1615357664984213000,10.639212890625,-2.071101194282621,-1.2388695952713489,2.5757705257058143
1615357664994145000,10.64914501953125,-1.2866751564107834,-1.1037170284599065,2.405785422705114
1615357665004077800,10.659077880859375,-0.6281295607447623,-0.7941782010793685,2.1442147996798155
1615357665014009600,10.669009521484375,-0.014993132600933313,-0.37347792332768437,1.9550641006991265
1615357665023941600,10.678941650390625,0.5465582889299839,0.08802373588979244,1.8403354593656955
1615357665033874000,10.6888740234375,0.8583808433335274,0.42847383436262604,1.7032715059749781
1615357665043806000,10.698805908203125,0.8760591233652084,0.6145300744593143,1.4534714002422988
1615357665053738800,10.70873876953125,0.6823275263350457,0.7016939786493778,1.1654865252830087
1615357665063670800,10.7186708984375,0.2248362718027085,0.8075631678313017,0.879022868541628
1615357665073602800,10.728602783203126,-0.4807483576096594,0.9530904136627912,0.662629211717844
1615357665083534600,10.73853466796875,-1.3078924242235719,1.122739124315977,0.5202069461643696
1615357665093467600,10.748467529296875,-2.052340671972185,1.295199969780445,0.5060783214382827
1615357665103399700,10.758399658203125,-2.642318342846632,1.3955401664078235,0.6558686315417289
1615357665113331700,10.768331787109375,-2.976476647698879,1.3176888649642466,0.9451520218789576
1615357665123263700,10.778263671875,-3.2091035003125667,1.0690022734314202,1.2840586903020739
1615357665133195800,10.78819580078125,-3.407034302598238,0.6726151836812496,1.5385747186407446
1615357665143128800,10.79812890625,-3.3643174428999423,0.11504910545945167,1.753185729831457
1615357665153060900,10.808060791015626,-3.2047464741468428,-0.48784664530754085,1.8017882865674792
1615357665162992600,10.81799267578125,-3.0868948784872887,-0.8132301075518131,1.7720359762519597
1615357665172924700,10.827924560546874,-2.9963281801164148,-0.7813853550016879,1.739880842578411
1615357665182857700,10.837857666015625,-2.8965599381580946,-0.4937456402182579,1.6746937923967837
1615357665192789800,10.847789794921875,-2.7203300955489276,-0.1084381628870964,1.5416908048346638
1615357665202721800,10.8577216796875,-2.280597638938576,0.19637889666855335,1.4276977842994034
1615357665212653800,10.86765380859375,-1.3999113672293721,0.7306319038420915,1.7005210382230578
1615357665222585900,10.8775859375,-0.8563998255841434,0.9761766902178526,1.8453562101371586
1615357665232519000,10.887518798828125,-1.8124600488379596,1.3431038767278194,1.8124398828327655
1615357665242450700,10.89745068359375,-3.8084190545052286,2.1961533689707515,2.096894683969766
1615357665252382700,10.9073828125,-5.60365353551507,2.8888953948795795,2.612107036717236
1615357665262314800,10.917314697265626,-5.562049605494737,3.2780385048508642,3.4694451660647987
1615357665272246800,10.927246826171874,-4.225744887387752,2.957086887574196,4.07648400798589
1615357665282179800,10.937179931640625,-3.0766847423791885,1.9794599985480308,3.8939784461081026
1615357665292112000,10.94711181640625,-2.203414884406328,0.8667027545422316,3.0763395822033286
1615357665302044000,10.9570439453125,-0.7191232523560523,-0.008603577694296836,2.2947996211618182
1615357665311975700,10.9669755859375,1.3770447247743607,-0.3191384303748607,1.6576520567029713
1615357665321908700,10.97690869140625,3.1473850030243393,0.10821662909090518,0.6686255295231938
1615357665331840800,10.9868408203125,4.542192178982496,1.0439216081887484,-0.4116360968083143
1615357665341772800,10.996772705078126,5.972395077970623,2.400167290562391,-1.3928291538834572
1615357665351704800,11.006704833984376,7.1344754480719565,4.05881244995594,-2.173765011551976
1615357665361636900,11.016636962890624,7.346717684304714,5.790388405525684,-2.830465417742729
1615357665371570000,11.02656982421875,5.086950798079371,7.678881015947461,-3.579985269667208
1615357665381502000,11.036501953125,-1.8205562615320086,8.648746623322367,-4.210206541994213
1615357665391433700,11.046433837890625,-6.21835896654129,6.08502952350378,-3.6930285882622003
1615357665401365800,11.05636572265625,-4.912378659549355,3.1145833881407974,-2.9006352247729894
1615357665411297800,11.0662978515625,-1.1192027668833733,1.0212982729703188,-2.599719848830998
1615357665421230800,11.07623095703125,0.7641533574327826,-0.5626619400560856,-2.231213576436043
1615357665431163000,11.086162841796876,1.5206122148402035,-1.6087778434187172,-2.4115026313081382
1615357665441095000,11.096094970703126,2.166290145626664,-2.1276222690582274,-2.8086291412487623
1615357665451027000,11.10602685546875,2.5657328235551713,-2.339413254392147,-2.825056836697459
1615357665460960000,11.1159599609375,2.99185161922425,-2.2366490454882384,-2.8275591749072073
1615357665470891800,11.125891845703125,3.7085412146925925,-2.1114654995054005,-2.662684254527092
1615357665480823800,11.13582373046875,3.8949069591298695,-2.2131641250044107,-1.9886402070865035
1615357665490755800,11.145755859375,3.6397725066319104,-1.8924837258845566,-1.1133353361546992
1615357665500688000,11.15568798828125,3.16170754288733,-1.3762147036910057,-0.14741291344761848
1615357665510621000,11.165620849609375,2.67016613471508,-1.1558891142457723,0.5343137974500656
1615357665520553000,11.175552978515626,2.616533913248777,-1.2201304080098867,0.814940418601036
1615357665530485000,11.185485107421876,2.8097783112838863,-1.365117555615306,0.8007450122490525
1615357665540416800,11.195416748046876,2.895571511642635,-1.3100889113545418,0.4415604026898741
1615357665550348800,11.205348876953124,2.5722958353325724,-0.9864847337424755,-0.09150310243815184
1615357665560281900,11.21528173828125,2.0290996432468296,-0.6044757134348153,-0.7813564211681485
1615357665570214000,11.2252138671875,1.326543202549219,-0.273754981815815,-1.9111153611183165
1615357665580146000,11.23514599609375,0.6889087313562631,-0.17799100706279278,-3.2367969784021375
1615357665590078000,11.245077880859375,0.45941666963696476,-0.452957702755928,-4.233382834920286
1615357665600010000,11.255010009765625,0.9138134652853012,-1.0066881483376025,-4.852288055723905
1615357665609943000,11.264943115234376,1.3760092442467808,-1.4971031828284262,-5.11324902241826
1615357665619870200,11.2748701171875,1.6656696512028575,-1.966740217706561,-5.05675848891139
1615357665629802200,11.28480224609375,1.6404136293932794,-2.457826283326745,-4.630457614673674
1615357665639734300,11.294734375,1.5584130993157623,-2.5161703357458114,-3.9149338481143117
1615357665649667300,11.304667236328125,1.5847873115003108,-2.257432890319824,-3.046360331264138
1615357665659599400,11.314599365234375,1.569974942293763,-1.8801169962644575,-2.169088251912594
1615357665669531400,11.324531494140626,1.4363263503044843,-1.398107386547327,-1.3070567040517926
1615357665679463200,11.334463134765626,1.0236360682681203,-0.7968418673306703,-0.35622926688492296
1615357665689395200,11.344395263671874,0.2336287231326103,-0.18850071063935755,0.7022744088858366
1615357665699328300,11.354328369140624,-1.070813999028504,0.24622341628968714,1.8493170765921472
1615357665709260300,11.36426025390625,-2.7923230263531207,0.47132513409554955,3.133852152234316
1615357665719192300,11.3741923828125,-3.9382892969995735,0.4865197806179523,4.504464213612676
1615357665729124400,11.384124267578125,-4.03304760184139,0.3652946168720722,5.6958349756062026
1615357665739056000,11.39405615234375,-3.8439351890444753,0.3267699481666088,6.6031696002662175
1615357665748989400,11.403989501953125,-3.935207697597146,0.5123322672665119,7.473770531290769
1615357665758921200,11.413921142578126,-4.006465007603168,0.755180069643259,8.103661841011046
1615357665768853200,11.423853271484376,-4.110831391006708,0.743667326503992,7.937180654478072
1615357665778785300,11.433785400390626,-4.40922864664793,0.2316507010579109,6.879524535447358
1615357665788718300,11.44371826171875,-4.94000900927484,-0.7831634705901146,5.563713154792786
1615357665798650400,11.453650390625,-5.9009723482698195,-2.0853858863532544,4.268194912843406
1615357665808582400,11.46358251953125,-6.206768481990695,-3.2835131368696686,2.670647488491237
1615357665818514400,11.473514404296875,-4.034831270387769,-2.552286774265766,0.9337538450300693
1615357665828446200,11.4834462890625,-0.4109253181904554,-0.13708324261307717,-1.1803256363660097
1615357665838379300,11.493379150390625,2.046221896830946,2.9218519080638883,-2.795170816999674
1615357665848311300,11.503311279296875,3.661258069992065,6.281690744245052,-2.9647505540698766
1615357665858243300,11.513243408203126,4.998785607892275,9.812613292318582,-3.289589534173906
1615357665868175400,11.52317529296875,6.097561088296771,13.379862706792354,-4.247891252744197
1615357665878108200,11.533108154296874,4.489228066036105,15.453379291653633,-5.747497358304262
1615357665888040200,11.543040283203124,-6.171041919571161,13.244641750919818,-7.316850953829288
1615357665897972200,11.55297216796875,-14.963926380193232,4.487327200850844,-7.844175038522481
1615357665907904300,11.562904296875,-7.083153841635585,-2.4228373875319957,-8.039071587678789
1615357665917836300,11.572836181640625,3.1673066780686376,-3.2175545177936553,-8.008552530774473
1615357665927769000,11.58276904296875,8.265667927956581,-1.8371429469346998,-6.694014238795638
1615357665937701000,11.592701171875,7.8761781965047115,-1.5240040492355822,-5.242189875108004
1615357665947633200,11.602633056640625,5.600398917633295,-2.6197096206754447,-4.392441470237076
1615357665957565200,11.612565185546876,3.7601100738883018,-3.870239843124151,-3.7743309069424864
1615357665967497200,11.622497314453126,2.5427660817265507,-4.319188894760608,-3.3328079136535522
1615357665977430300,11.63243017578125,2.0319528407208622,-3.9457325987428424,-3.0463539015233514
1615357665987362000,11.642362060546875,2.3787620989620684,-3.2588112418115136,-2.7017034287512303
1615357665997294000,11.652294189453125,2.8882494981914757,-2.3122855934917927,-2.1900956763669845
1615357666007226000,11.66222607421875,3.4123499446630476,-1.3306155665546655,-1.6096338757261632
1615357666017159200,11.6721591796875,4.282490272438526,-0.2701893982887268,-1.1181582262665033
1615357666027091200,11.68209130859375,5.18520132895112,0.9128016578942537,-1.019363797776401
1615357666037023200,11.692023193359375,5.454467767176031,1.7270996869385242,-0.9520335980862379
1615357666046955300,11.701955322265626,5.316389083784818,1.8142641756504774,-0.7537973831132054
1615357666056887000,11.711886962890626,5.100169760614634,1.2950269513010977,-0.5560261553034186
1615357666066820000,11.721820068359374,4.93741723921597,0.4477554579377174,-0.29318332038521766
1615357666076752100,11.731752197265624,4.484077843666077,-0.17858780391216278,-0.023450725953280925
1615357666086684200,11.74168408203125,3.6459605476170776,-0.6446423041284084,0.26545827811360356
1615357666096616200,11.7516162109375,3.1787247286617752,-1.0385241330593824,0.5568558841258288
1615357666106548200,11.76154833984375,2.984514992725849,-1.2307096696913242,0.7357333186343312
1615357666116481300,11.771481201171875,2.7079256642669436,-1.239292789119482,0.8993471330374478
1615357666126413300,11.781413330078125,2.3073025443822144,-1.0390963799893855,1.1725009340897201
1615357666136345000,11.791344970703125,1.864662822023034,-0.7046534129768609,1.4810326302543282
1615357666146277000,11.801277099609376,1.4652841492414475,-0.5042284557878971,1.7540338710933923
1615357666156209200,11.811209228515626,1.1661235080122947,-0.4238713090032339,2.125899975310266
1615357666166142200,11.82114208984375,1.1945534836828708,-0.170504450699687,2.646609025777876
1615357666176074200,11.83107421875,1.2757295456349849,0.2938888383060694,3.362696855960786
1615357666186006300,11.84100634765625,0.5052256501317024,0.6785796450436115,4.083910066333413
1615357666195938000,11.85093798828125,-1.0374386759102343,0.9222451935440301,4.6089475013941525
1615357666205871400,11.860871337890625,-2.646535083758831,0.9077923052996396,4.792746025691926
1615357666215803100,11.87080322265625,-4.192173457175493,0.7081722347527742,4.51529131257534
1615357666225735200,11.880735107421875,-5.843862806081772,0.5301899955183267,3.8963343615844845
1615357666235667200,11.890667236328126,-7.881268213120102,0.505890251520276,3.133530957455933
1615357666245599200,11.90059912109375,-9.951445424425602,0.7320867788255214,2.294308476644009
1615357666255532300,11.9105322265625,-12.076726098793744,1.3134931668400764,1.3173353753514587
1615357666265464300,11.92046435546875,-11.300824728161096,1.9882658208161592,0.7610260191924869
1615357666275396400,11.930396240234375,-6.554322274988889,2.05202897567451,1.2096613287046551
1615357666285328100,11.940328125,-2.834881772880256,1.7647773834258318,1.9931199828490613
1615357666295260200,11.95026025390625,-1.1781272495388984,1.6814812605798244,2.2899767310500145
1615357666305193200,11.960193115234375,-0.2836675962820649,1.56106565965116,2.4675004128620026
1615357666315125200,11.970125244140625,0.16130349163413046,1.2275310396552086,2.662439632116258
1615357666325057300,11.980057373046876,0.3164316556341946,0.6827735896021128,2.6241245145082472
1615357666334989300,11.9899892578125,0.2435951136127114,0.14692191506028174,2.3803832704231143
1615357666344922400,11.99992236328125,0.03470993272289634,-0.17775135308802126,2.1138974028274418
1615357666354854400,12.0098544921875,-0.28326164582967756,-0.39450551378726956,1.9068427983656524
1615357666364786200,12.0197861328125,-0.5558043292462825,-0.6586310819923877,1.6426304286599158
1615357666374718200,12.02971826171875,-0.7302047644712031,-1.0649544593453406,1.1339803570374847
1615357666384650200,12.039650146484375,-1.0422120277918874,-1.4134125077068804,0.492727110825479
1615357666394583300,12.049583251953125,-1.6004643347121774,-1.3753162935465573,-0.05284925439506769
1615357666404515300,12.059515380859375,-2.1374154949285087,-0.601011252194643,-0.1866410542473197
1615357666414447400,12.069447265625,-2.7473136718034743,0.6643944678246975,-0.1557861895173788
1615357666424379100,12.079379150390626,-3.419381742995977,1.9024387181878089,-0.06081307288110256
1615357666434311200,12.089311279296876,-3.780576523333788,3.3331916522741314,0.33148031781464815
1615357666444244200,12.099244140625,-5.260173275566101,5.094890943428874,0.585854307334125
1615357666454176300,12.10917626953125,-14.395931262415647,7.652451858705282,0.38218174652606246
1615357666464108300,12.1191083984375,-15.809706173694133,7.4388482709914445,-0.15885054552406072
1615357666474040300,12.129040283203125,-5.620383721041679,5.3296986472129815,-1.0158455605223775
1615357666483973400,12.138973388671875,0.7106886014878749,3.0710709941506384,-1.2597262130782008
1615357666493905400,12.148905517578125,4.066721615645289,0.9631775079131126,-0.9296543007567525
1615357666503837400,12.15883740234375,5.1673839327096935,0.2862719335615635,-1.162510285951197
1615357666513769200,12.168769287109376,5.343378212997317,0.5958493393868207,-2.075230695302784
1615357666523701200,12.178701171875,5.755048796597123,1.4037380859106778,-3.0143209329247473
1615357666533634300,12.18863427734375,6.4732572721958155,2.7514088321626184,-3.7514433678299186
1615357666543566300,12.19856640625,6.428028137415647,4.905386024183034,-4.540248643699288
1615357666553498400,12.208498291015625,3.643776189315319,7.523912572553753,-5.280266215524077
1615357666563430400,12.218430419921875,-0.1043733976662159,9.094563222151994,-5.356596006488799
1615357666573362200,12.228362060546875,-3.0284014807254076,8.329249881029128,-4.818756957522035
1615357666583295200,12.238295166015625,-2.662368904967606,4.969973939427733,-4.090180817165971
1615357666593227300,12.248227294921875,-0.5481031072191894,2.0476830554246903,-3.5361887980386615
1615357666603159300,12.2581591796875,0.5956776360817253,0.48171734877228733,-3.21241657038331
1615357666613096000,12.268095947265625,1.3579071858450769,-0.5396329466462135,-2.9763635427132247
1615357666623028000,12.278028076171875,1.9282272394388913,-1.050369469153881,-2.8809987964108585
1615357666632961000,12.2879609375,2.471306234885752,-1.29405313783288,-2.994662292730808
1615357666642892800,12.297892822265625,3.060206778047979,-1.7832202180892227,-3.189389622800052
1615357666652824800,12.307824951171876,3.5868007949009537,-2.2849545189738274,-3.1669132948368786
1615357666662756900,12.3177568359375,3.6959076508298514,-2.641385445910692,-2.7114368872582912
1615357666672690000,12.32768994140625,3.4212034054651856,-2.7478818270802496,-2.033478881244361
1615357666682622000,12.3376220703125,2.9845068094193934,-2.3079501946359873,-1.4628870249718426
1615357666692554000,12.347553955078125,2.781492127998173,-1.6739906125634907,-1.211461071603
1615357666702486000,12.357486083984375,2.951728283150494,-1.1707008989304304,-1.171691955794394
1615357666712417800,12.367417724609375,3.0516128449648616,-0.9807418061763048,-1.3243734572947023
1615357666722350800,12.377350830078125,3.0762720699250696,-0.9717781629979609,-1.6826806994974612
1615357666732283000,12.387282958984375,3.257128403291106,-1.0911977386265992,-2.101236950957775
1615357666742215000,12.39721484375,3.612809388643503,-1.3113111466258764,-2.4095377609759567
1615357666752147000,12.40714697265625,3.9698300981670616,-1.6677525949567555,-2.606679458710551
1615357666762079000,12.417078857421876,4.176535158538818,-2.130859351283312,-2.7924197647258637
1615357666772012000,12.427011962890624,4.121750552166998,-2.5253274556696415,-2.957563565175235
1615357666781944000,12.436944091796875,3.9364728952273724,-2.800188352900743,-3.027208179287612
1615357666791875800,12.446875732421875,3.7618355825066563,-2.9645249286204574,-2.9675422306150194
1615357666801808000,12.456807861328125,3.568469019396603,-3.005164397522807,-2.7266858943164345
1615357666811741000,12.466740966796875,3.2626784386336802,-2.8547154773801564,-2.2491250807017087
1615357666821673000,12.4766728515625,2.771096698451042,-2.453185764044523,-1.6136913344234227
1615357666831605000,12.48660498046875,2.0367270693853494,-1.831141076171398,-0.6908233328059316
1615357666841537000,12.496537109375,0.8291916467934847,-1.0263485420972107,0.8229106668278574
