time,seconds_elapsed,z,y,x
1615031811242619400,0.047619384765625,0.5242845708668231,-0.1302630412042141,-0.9233274358227849
1615031811252682500,0.0576826171875,0.7994394826084374,0.4452271085038781,-1.2866333630956708
1615031811262744300,0.067744384765625,1.2411387092471122,0.2881915034472942,-1.547499491113424
1615031811272806700,0.077806640625,1.3779402123093605,-0.027004326781630516,-1.8527325841240583
1615031811282868700,0.08786865234375,2.231831416073441,-0.4310866472095251,-1.3828237465672195
1615031811292930600,0.0979306640625,1.6245149262547491,-0.32330519466549157,-1.3754671001940966
1615031811302992600,0.10799267578125,1.1652829655349255,-0.1347632752329111,-1.1940325285486877
1615031811313055500,0.118055419921875,0.9145119689434766,0.17832243097424505,-0.3332192704364657
1615031811323117600,0.12811767578125,-0.22744331249594688,0.5810118357390165,0.40073388678282496
1615031811333179400,0.138179443359375,-0.2719143223851919,0.7714268555670977,0.9535347964294254
1615031811343241500,0.148241455078125,0.8268389461874961,0.5294874002069234,1.0534247650712727
1615031811353303600,0.158303466796875,1.6668547693341969,0.12004121465831995,0.5164738971158862
1615031811363366700,0.16836669921875,1.571409359011054,-0.10607903254032135,-0.3117471510797739
1615031811373428500,0.178428466796875,1.8205787656247614,-0.11838234153538942,-0.580812367644161
1615031811383490600,0.188490478515625,0.9786042096257209,0.24119185186326503,0.029222733483463523
1615031811393552600,0.198552734375,-0.4804109423488378,0.8709253406733274,0.5113657603219152
1615031811403614500,0.208614501953125,-1.528047771668434,1.5130506935447454,0.6877272664867341
1615031811413677600,0.218677490234375,-2.005265470933914,1.418105633959174,0.702849870686233
1615031811423739400,0.228739501953125,-3.3445588494628664,0.9967489381253719,0.07670293512605131
1615031811433801700,0.2388017578125,-2.59017665219903,0.3257844442605972,-0.1856439329687506
1615031811443863600,0.248863525390625,-0.5996148294001817,0.641921939253807,0.20696583019979298
1615031811453925600,0.258925537109375,-0.4776946691274643,1.121458144594729,0.7309234341345727
1615031811463987700,0.26898779296875,-0.6754331637114286,1.0453276755943894,0.9744251703754067
1615031811474050600,0.279050537109375,-0.4407558083087206,0.5623313929274678,0.7963562027055769
1615031811484112400,0.2891123046875,0.41570729176998134,0.26055881563425065,0.7951843093819916
1615031811494174500,0.299174560546875,0.6040712242871522,0.24844810660183428,1.0798673663169145
1615031811504236500,0.309236572265625,1.1848247013509272,0.2985521539419889,0.9267462312903255
1615031811514298400,0.31929833984375,2.2022575310647485,0.08570902920663356,0.2540089555993676
1615031811524361700,0.32936181640625,1.8161013279497622,-0.43891222626864906,-0.4721359390217811
1615031811534423600,0.339423583984375,1.0191957477331162,-0.8050172827407718,-0.5266266039483248
1615031811544485600,0.349485595703125,0.5958832416564226,-0.5259940051332116,-0.26486805713549255
1615031811554547500,0.35954736328125,0.38522096809148787,0.2881326128669083,0.15866992826014756
1615031811564609500,0.369609619140625,3.006497691953182,1.1103270942494272,-0.6028947278536856
1615031811574671600,0.379671630859375,4.7815398642838,1.5564428221561013,-2.8030668309465048
1615031811584734500,0.389734375,4.295620972168446,0.5636053583860396,-3.270107419590652
1615031811594796500,0.399796630859375,2.5161662440925836,0.051078883721679444,-2.4948849711328744
1615031811604858600,0.409858642578125,3.1166292147547003,0.0549792521610856,-1.139153375761211
1615031811614920700,0.419920654296875,3.7597897558927533,-0.26110081355646253,-1.4045549552515149
1615031811624982500,0.429982421875,4.0311628110080955,-0.25357772457525135,-1.6377216138303279
1615031811635045600,0.440045654296875,4.3684459698826075,0.5548141491651535,-1.2588114363208411
1615031811645107500,0.450107421875,2.9994027652561663,2.11594235265851,-0.051813919997960325
1615031811655169500,0.46016943359375,-4.325675334170461,4.672414888176322,2.3296137449115513
1615031811665231400,0.4702314453125,-2.583679106873274,3.924871012499928,2.300225737863779
1615031811675293400,0.48029345703125,6.515684793558717,0.2653198925562203,-1.360880064176023
1615031811685356500,0.4903564453125,7.321900638434291,0.6195142926126718,-1.0768144084870814
1615031811695418600,0.500418701171875,4.594626715096831,3.5418919781163334,0.9623778819680213
1615031811705480400,0.51048046875,3.364408628314733,4.69981493627727,0.83099080516994
1615031811715542500,0.52054248046875,4.464725492942333,2.0372569384783503,-1.130145016658306
1615031811725604600,0.5306044921875,2.8570617482453584,1.5940414620578287,-1.578369261151552
1615031811735666400,0.54066650390625,1.6819102996468542,1.4307108485102653,-1.2092962947845458
1615031811745729500,0.5507294921875,1.6358458830863236,2.477031919056177,-1.1283666088089346
1615031811755791600,0.56079150390625,2.676259190893173,4.116408314356208,-2.2791350190401074
1615031811765853700,0.570853759765625,0.29221184500455855,4.363500914695859,-1.6408318548053502
1615031811775915500,0.58091552734375,-1.2322756038337945,2.540766432341933,-2.0540245334059
1615031811785977600,0.5909775390625,-2.2927023566216227,1.6487433585822582,-0.8251891331538558
1615031811796040400,0.60104052734375,0.05259586415588855,1.504134688900411,0.07590075189769267
1615031811806102500,0.6111025390625,-0.42471886574327944,1.235141222397983,0.4891539285138249
1615031811816164600,0.62116455078125,-1.6290391256809234,0.7596058501962571,0.9256830590382218
1615031811826226400,0.631226318359375,-2.776263871955871,0.4579361487556249,1.6051801111876964
1615031811836285400,0.641285400390625,-3.275127585840225,0.1661919943280518,1.7803820720538497
1615031811846348300,0.651348388671875,-3.4428748467862604,0.38333544660583135,1.7017124399647117
1615031811856410400,0.661410400390625,-3.13220321598351,0.6474129378855228,1.7347580927371977
1615031811866472200,0.67147216796875,-2.9018139131635428,0.5155246335670352,2.034126823759079
1615031811876534300,0.6815341796875,-2.514928811252117,0.10496800255849957,2.3336492840379477
1615031811886596000,0.69159619140625,-1.8433751193225383,-0.09824190917387604,2.4975135660707948
1615031811896658200,0.701658203125,-1.2392045263141394,-0.06816971925422549,2.5385662919491527
1615031811906721300,0.71172119140625,-1.7154466585457324,-0.008676642930507659,2.6413094580650327
1615031811916783400,0.721783447265625,-1.6115204201251268,-0.21104206666275857,2.4809470466732977
1615031811926845400,0.731845458984375,-1.9418992064386604,-0.6125149352446199,2.106304171219468
1615031811936907300,0.7419072265625,-2.4904408512055873,-0.7759232902035117,1.6885101363033055
1615031811946969300,0.75196923828125,-1.6729805587381124,-0.6683607411071658,1.4400672903984784
1615031811957032200,0.7620322265625,-2.0542191791951656,-0.35398791769891974,1.3726432749450206
1615031811967094300,0.77209423828125,-2.2585084105968476,0.23662615138292312,1.263117901343107
1615031811977156400,0.78215625,-3.0565269204914567,0.8028647808820009,0.7176894201606512
1615031811987218400,0.792218505859375,-3.040286564308405,1.2791253255531192,0.3603250117659569
1615031811997280300,0.8022802734375,-3.006878215703368,1.0274790074318647,1.1203618737906218
1615031812007342300,0.81234228515625,-3.351283189281821,0.23652298326939342,1.7163421460807322
1615031812017405200,0.8224052734375,-3.0398668775916096,0.17574878109395503,1.3441945945739746
1615031812027467300,0.83246728515625,-2.634464122214913,0.4684299971759319,1.014574517673254
1615031812037529300,0.842529296875,-2.4134955586910247,0.23058248730450867,1.2020236734330654
1615031812047591200,0.852591064453125,-1.9865321288913487,0.26039485724419353,1.4154998353749513
1615031812057653200,0.8626533203125,-1.8036936817973852,0.6776698367223143,1.0660603747606276
1615031812067716400,0.87271630859375,-2.434198739501834,0.5791296752542257,0.8792372419446707
1615031812077778400,0.8827783203125,-3.7718636400461194,-0.43292555307447905,0.6440332323193549
1615031812087840300,0.89284033203125,-3.6166952901661396,-0.6020972938656807,0.4325193103611469
1615031812097902300,0.90290234375,-2.743248906582594,0.020124504140019414,0.2381517535150051
1615031812107964200,0.912964111328125,-2.281733803361654,0.745286159877479,-0.3400362569749355
1615031812118027300,0.92302734375,-2.8688872105956076,1.0978680101707576,-0.9149842626303434
1615031812128089000,0.933089111328125,-4.060646095123887,1.151169392247498,-0.8453618603497743
1615031812138151400,0.9431513671875,-4.3019133503109215,1.0839034899652003,-0.6767372320473194
1615031812148213500,0.953213623046875,-3.8549756384968754,1.0068632126435637,-0.8100070538520813
1615031812158275300,0.963275390625,-3.363456442156434,0.8100348186418413,-1.3172750234663486
1615031812168337400,0.97333740234375,-3.6004677934646603,0.750629566732049,-1.4372995792508125
1615031812178400300,0.983400146484375,-3.734522628167271,0.7483034618720412,-1.5609130994379519
1615031812188462300,0.99346240234375,-3.347422422200441,0.6550193212360144,-2.0528303551852702
1615031812198524200,1.003524169921875,-2.937634583607316,0.5001642750889063,-2.0640099208474156
1615031812208586200,1.013586181640625,-2.9583383489400146,0.3569222175851464,-2.6108903544038533
1615031812218648300,1.0236484375,-2.3987211834073063,0.20479659640192985,-2.533659230685234
1615031812228711400,1.03371142578125,-0.9706640642762183,-0.11677987477481365,-2.2145266455292703
1615031812238773200,1.043773193359375,-0.3858241946816444,-0.7414666015893221,-3.0154730255693196
1615031812248835300,1.05383544921875,-0.08563830205798148,-1.1027958219617604,-3.013938655608892
1615031812258897400,1.0638974609375,0.4294961631476879,-2.2490122679769993,-3.2546453543037175
1615031812268959200,1.073959228515625,0.23944179332554338,-2.464793784251809,-3.26461846678555
1615031812279022300,1.084022216796875,0.5568418556004763,-1.8607617229312656,-2.43952081130743
1615031812289084200,1.094084228515625,1.2172890471041202,-1.544987800553441,-2.519444242849946
1615031812299146500,1.104146484375,1.5981974126935004,-1.2157961781978606,-2.990419248333573
1615031812309208300,1.114208251953125,1.651188998168707,-1.2772890500366687,-3.104887923556566
1615031812319270400,1.1242705078125,1.5558745207488536,-1.6123241377234458,-3.243345377132296
1615031812329332200,1.134332275390625,2.793220851975679,-1.155018761152029,-2.4807819192394613
1615031812339395300,1.144395263671875,3.779232707509398,0.18846563932597635,-1.7247569232046602
1615031812349457200,1.15445703125,4.215617461127042,1.6768629531294106,-1.2426830160796642
1615031812359519200,1.164519287109375,3.350718541136384,3.3761592718631026,-0.5809925465166569
1615031812369581300,1.174581298828125,-0.3998234939396381,4.669650684159994,0.1353460435569286
1615031812379643100,1.18464306640625,-4.655618067154288,3.247115543320775,-0.3111977005034685
1615031812389705200,1.194705322265625,-4.194204086220264,0.7581628848463297,0.029111820454895496
1615031812399768300,1.204768310546875,-2.4393466237843033,-0.31561493242383004,1.0321306326299906
1615031812409830400,1.214830322265625,-2.6560914321333167,0.08311959723532199,1.289694650362432
1615031812419892200,1.224892333984375,-3.355895651513338,0.6409779364019632,1.0831640697747469
1615031812429954300,1.234954345703125,-3.325749519574642,0.633106180113554,1.0999851484552026
1615031812440016400,1.245016357421875,-2.7710832544475794,-0.027613983112573622,1.7356527034893632
1615031812450079200,1.255079345703125,-2.390973345759511,-0.49201720899045465,2.0962360739305614
1615031812460141000,1.26514111328125,-2.6613106280863286,-1.2233435248374938,2.1556834114164114
1615031812470203400,1.275203369140625,-2.215145654210448,-1.6859902624368666,2.207768403440714
1615031812480265500,1.285265380859375,-0.7085667870283127,-1.2469424270898104,2.262203757983446
1615031812490327300,1.295327392578125,1.4058394421041012,-1.2784265296339987,2.0418156246960164
1615031812500390400,1.305390380859375,11.051994928765296,-2.64696587639153,1.5387906994789837
1615031812510452200,1.3154521484375,1.0474427680522203,-3.060990914162993,0.46055590279996395
1615031812520514300,1.325514404296875,0.6706137807309627,-2.400671148431301,0.16261866588592527
1615031812530576100,1.335576171875,4.313153706249595,-1.5306559083402156,0.45199382615983486
1615031812540638200,1.34563818359375,-1.0768883505061269,-0.4831926820218563,0.4284188893049955
1615031812550700300,1.3557001953125,-0.252993641076982,0.07791969050467014,0.3825666541904211
1615031812560763400,1.365763427734375,-1.3868889501795172,-0.3284305748552084,0.43547173042595383
1615031812570825200,1.3758251953125,-1.7472686147421597,-0.0378191507846117,1.1096984409570694
1615031812580887300,1.38588720703125,-6.050801675209403,-2.0137726025164127,1.2742922063082456
1615031812590949400,1.395949462890625,-5.726103272619843,-1.5430734913647175,1.3418150059610605
1615031812601011200,1.40601123046875,0.2704635390549898,0.7596025622606277,2.632160521447658
1615031812611074300,1.41607421875,2.950213786934316,0.4852741644710302,3.095941816034913
1615031812621136100,1.42613623046875,6.495954257172346,-0.7953852387815713,2.7219793240606784
1615031812631198500,1.436198486328125,4.729975681263208,-2.4760744722008705,1.1304869619637727
1615031812641260300,1.44626025390625,1.3633672048166394,-2.5000211649775506,-0.9117541946679353
1615031812651322400,1.456322265625,0.09600216742306947,-1.175130990332365,-1.9433517433345318
1615031812661384400,1.466384521484375,0.01514116276949644,-0.9384574926763772,-2.082088598373532
1615031812671447300,1.476447265625,2.0685329512298107,-1.1184411348611116,-1.7675298970043658
1615031812681509400,1.48650927734375,2.9474484138742088,-0.912381386655569,-1.3645184206783771
1615031812691571200,1.4965712890625,-0.3037111441403627,-1.8329659535109997,-0.2778711849629879
1615031812701633300,1.50663330078125,2.5559584485158324,-1.8332921167254448,1.3421131121248007
1615031812711695000,1.516695068359375,2.4586022361353037,-3.0051223119467494,1.7942454699724912
1615031812721758500,1.526758544921875,0.6956964918002486,-4.830818566715717,1.7714000164359807
1615031812731820300,1.5368203125,-0.572412203567475,-5.9480228532582515,2.000039845240116
1615031812741882400,1.54688232421875,-0.8477915717147291,-7.053127536684274,1.5256804580152035
1615031812751944200,1.556944091796875,1.2537120673552156,-4.628849302694201,-0.4991641581356525
1615031812762006300,1.56700634765625,1.2085079208858311,-5.012132580721378,0.43006665651202197
1615031812772068400,1.577068359375,-0.2838971672542393,-4.396294930794835,0.8083540259480476
1615031812782131200,1.587131103515625,-2.2781524377435445,-2.6272519988790153,1.5191957721710203
1615031812792193500,1.597193603515625,-4.797507248744369,-0.9547644843548536,1.9097218609333038
1615031812802255400,1.60725537109375,-4.80977636320889,-1.919363549503684,0.6366250018894672
1615031812812317400,1.6173173828125,-4.510190774565935,-3.3379122510552404,0.2651350375086069
1615031812822379300,1.627379150390625,-3.8515702139675616,-4.6108998045057055,-0.060680386412143704
1615031812832442000,1.637442138671875,-1.8626181644529103,-4.6593408870697015,-0.3384931191861629
1615031812842504000,1.64750390625,-0.8059943110793828,-3.8745898550271987,-0.17207506101727485
1615031812852566000,1.65756591796875,-0.7204302433013916,-3.260043413954973,0.41819618597626684
1615031812862628000,1.667628173828125,-0.6024011721830814,-1.4133067092448472,0.8321551727741956
1615031812872690000,1.67768994140625,2.113248875790834,1.4408710079967975,0.5435568420916795
1615031812882753000,1.6877529296875,5.941528230541945,4.267437080213427,0.1742465598374605
1615031812892815000,1.697815185546875,9.058224665313958,6.459796317598223,0.8211474565476179
1615031812902877200,1.707877197265625,7.593894455796479,5.974903845921158,1.4256220009386538
1615031812912939000,1.71793896484375,2.2105156563222406,4.088099919238687,1.316362000274658
1615031812923001000,1.7280009765625,-1.7071289120554922,3.5898552140355107,1.417990483146906
1615031812933063000,1.73806298828125,-2.676635622990131,2.166230524393916,1.3041489999115465
1615031812943126000,1.7481259765625,-2.931446250361204,1.5989607982814311,0.9128466660797595
1615031812953187800,1.758187744140625,-1.699475182431936,1.5769214004307985,0.7980144182413816
1615031812963250200,1.768250244140625,-0.924486761925742,0.7768857054948807,0.7876765641003847
1615031812973312300,1.778312255859375,-0.6482522382538766,-0.32826457063853737,0.9127069653481245
1615031812983374000,1.7883740234375,0.01534260362572968,-1.274393913117051,0.47938043025732036
1615031812993437000,1.79843701171875,0.6594073270618915,-1.686135223865509,0.1632189698666334
1615031813003499000,1.8084990234375,0.2809130003442988,-1.6954425659149883,0.33513387188613414
1615031813013561000,1.81856103515625,-0.14202833433244377,-1.3988427150845526,1.2385463546663522
1615031813023623000,1.828622802734375,-0.26744214540719985,-1.6706594223141669,2.473611881479621
1615031813033685000,1.83868505859375,-0.39780806246399875,-2.009818311932683,2.5345681622236964
1615031813043747000,1.8487470703125,-0.41618309258818625,-2.667150586286187,1.933461048439145
1615031813053810200,1.85881005859375,-0.34106267741322516,-3.5049048942416903,1.3778250614970922
1615031813063872000,1.8688720703125,0.018953715928131713,-3.8804648845404386,1.0745002863258122
1615031813073934000,1.87893408203125,0.2525976274967193,-4.156731556916236,0.912403890748322
1615031813083996200,1.88899609375,0.2848001074433327,-4.35504989721477,0.9310244200661778
1615031813094058000,1.89905810546875,0.037352117794752115,-4.3611084666013715,1.0072630256161093
1615031813104121000,1.90912109375,0.1143418339729309,-4.264304042884707,0.81609864872545
1615031813114183000,1.919182861328125,0.21475100418329238,-3.881801101580262,0.4099349919788539
1615031813124245000,1.929244873046875,-0.27241291955709457,-1.345051503664255,-0.5985333177737892
1615031813134307000,1.93930712890625,-1.7091116103053092,6.403261360427737,-2.3011294087052345
1615031813144369200,1.949369140625,-2.940114709985256,11.319313155531882,-2.069845787394047
1615031813154431200,1.95943115234375,-3.7719291064977645,11.040232010257244,-1.1631686767946927
1615031813164494000,1.969494140625,-4.2631706549406045,8.311665124499797,-0.9399266884461045
1615031813174556000,1.979555908203125,-4.188700228106975,6.385432273748517,-0.7630573788896202
1615031813184618000,1.989617919921875,-4.1310336365580556,4.0722728200316425,-0.830321235345304
1615031813194680000,1.99968017578125,-3.3085020321756597,2.015470638605952,-0.4377604258850217
1615031813204742000,2.009741943359375,-2.4890789152026174,2.276250403514504,0.47306496350020166
1615031813214805200,2.01980517578125,-2.4649808312565087,3.085655984342098,1.6105954142346977
1615031813224867000,2.0298671875,-2.080126358389854,2.703800108769536,2.3956360768735405
1615031813234929200,2.03992919921875,-1.4444944591909645,1.9574235233068464,3.2028149215623736
1615031813244991000,2.049990966796875,0.06344166781902313,1.3333774324834347,4.004892935980856
1615031813255053000,2.060052978515625,1.6105559590071439,1.7226695955365896,4.745940727636218
1615031813265115100,2.070115234375,3.7632401886075733,3.2971856883913278,7.19806441540718
1615031813275178000,2.080177978515625,4.996777190679311,3.1889561998188496,7.917794401484727
1615031813285239800,2.09023974609375,4.420251560443639,-1.1261591618925333,5.58888149831891
1615031813295302100,2.10030224609375,3.154124540412426,-4.181803454330563,3.5733661437883972
1615031813305364200,2.1103642578125,1.6000328114271163,-4.092686077985167,2.6219120991557836
1615031813315426000,2.120426025390625,0.36325631597749886,-2.212079836899042,2.2318857766091824
1615031813325489200,2.1304892578125,-0.46526897586174304,-0.552166849526763,1.9165829788744448
1615031813335551000,2.140551025390625,-1.202638005939126,0.1919452981352806,1.2611483548358082
1615031813345613000,2.150613037109375,-1.7625708132922648,0.372868851518631,0.5790148167029023
1615031813355675000,2.1606748046875,-1.7932114507496355,0.1817974136084318,-0.1007239352479577
1615031813365737000,2.170737060546875,-1.3665303450226782,-0.2130851167976856,-0.8230693645209074
1615031813375799000,2.180799072265625,-0.6756593736827373,-0.21938626276850698,-1.2743410138860345
1615031813385862100,2.190862060546875,0.1619570601720363,0.14404665188491345,-1.3106710951566696
1615031813395924000,2.200924072265625,0.909664601977542,0.5739093102574349,-1.0708177984207867
1615031813405986000,2.210986083984375,1.3693559238374233,0.8226005779653787,-0.9984478509977459
1615031813416048000,2.221048095703125,1.6295739632099866,0.7902998983412981,-1.0374193866878747
1615031813426110000,2.23110986328125,1.6260533878684043,0.6861836903065442,-1.0219687195777893
1615031813436173000,2.241173095703125,1.3133937981188297,0.5764876363128424,-1.0148550881803036
1615031813446235000,2.25123486328125,0.7662994295507669,0.510789713999629,-1.0246700874909758
1615031813456297200,2.261297119140625,0.16291326491832733,0.5649293004661798,-1.0410416688382624
1615031813466359000,2.271359130859375,-0.2100922916572541,0.6167530112057924,-1.0761237958744168
1615031813476421000,2.281421142578125,-0.2538607793003321,0.5758925930291414,-0.8895759728685021
1615031813486483200,2.291483154296875,-0.08229125665239989,0.4145382479906082,-0.39710400584787126
1615031813496546000,2.301546142578125,0.07792027502655982,0.36930092990398405,0.16307137808948755
1615031813506608000,2.311608154296875,0.3547978093096986,-0.22896774558424948,0.663697717732191
1615031813516670000,2.321669921875,0.3439677512049675,-0.703597766444087,0.72895607958436
1615031813526732000,2.33173193359375,-0.006812639156915247,-1.021609238615632,0.7622799647763371
1615031813536793900,2.3417939453125,-0.8297884436428546,-0.7777636573731899,0.565333789613843
1615031813546857200,2.351857177734375,-1.7670622794926165,-0.027415245670080184,0.41816345275044436
1615031813556919000,2.3619189453125,-2.284824755114317,0.3407318380236625,0.16965104874074458
1615031813566981000,2.371981201171875,-2.207154655456543,0.14450316348075865,0.020114567267894744
1615031813577043000,2.38204296875,-1.6139093610882758,-0.2746826180547476,-0.030900749698281285
1615031813587105000,2.39210498046875,-0.7991197491347789,-0.4705336914569139,0.02316372570544481
1615031813597167000,2.4021669921875,-0.12878829247653484,-0.29580139392912386,0.1759314441844821
1615031813607230000,2.41222998046875,0.28742461072802544,-0.07203998481631278,0.3059928253367543
1615031813617292000,2.4222919921875,0.4722556929439306,0.0348649771541357,0.30941461647897955
1615031813627354000,2.43235400390625,0.45669279763102527,0.06514730269312859,0.21545886019170282
1615031813637416200,2.442416259765625,0.29857790943775325,0.06840893483757972,0.13346885150820015
1615031813647478000,2.45247802734375,0.0901344809660688,-0.015628361764550208,0.09156272367089986
1615031813657541000,2.462541015625,-0.00336626156270504,-0.1537427009910345,0.05217208578586578
1615031813667603000,2.47260302734375,0.3416220283290371,-0.23940029227137563,-0.09332038099318742
1615031813677665000,2.4826650390625,1.3882920949757098,-0.14886077416837215,0.07052928799241781
1615031813687726800,2.492726806640625,1.1851409276932476,0.0892670139491558,-0.24031711485534904
1615031813697789000,2.502788818359375,-1.3573890071898698,0.2852075192004442,-0.6764668906733393
1615031813707851000,2.51285107421875,-4.098787901991606,0.5119634339541197,-0.8436202773794531
1615031813717914000,2.5229140625,-4.924295891836286,0.42949324053823945,-0.8163117069542407
1615031813727976200,2.53297607421875,-3.5160791992068288,-0.2139654067635536,-0.18600684799700976
1615031813738038000,2.5430380859375,-0.35889359072335064,-0.7651549356907605,0.7056555757567287
1615031813748100000,2.55310009765625,2.6089970880031585,-0.7867337302923202,1.0401678086131811
1615031813758162000,2.563161865234375,4.4551229673385615,-0.44207741230130193,0.7292758130580187
1615031813768225000,2.57322509765625,4.675944815868139,0.13657353952527046,0.13395049754530192
1615031813778286800,2.583286865234375,3.1486417250871654,0.5128372941792011,-0.7768062105178832
1615031813788349200,2.59334912109375,1.0530044938325882,0.8075649213969707,-1.606532694840431
1615031813798411000,2.603410888671875,-0.6878473126698285,0.8858879320055246,-2.146394189545512
1615031813808473000,2.61347314453125,-13.611935432654619,-0.39850247446894643,-3.2005989990785717
1615031813818535200,2.62353515625,-7.558174323117733,-1.2406418656408786,-2.6402155253484842
1615031813828598000,2.633597900390625,2.478700729051232,0.9536573998957871,-0.5612620101302862
1615031813838660400,2.643660400390625,1.2906331002563238,1.6813415598481893,-0.4966927995860576
1615031813848722200,2.65372216796875,4.317897685906291,0.563535800281167,0.5389695143014193
1615031813858784300,2.6637841796875,5.320405918210745,-0.3730564830452204,1.2076990887209773
1615031813868846000,2.67384619140625,3.385587609943747,-0.4575760102063417,1.117662551704049
1615031813878909200,2.6839091796875,1.0107471414048224,-0.19051789568066596,0.8731099912360311
1615031813888971000,2.693970947265625,0.561233514688164,-0.1727045910924673,1.0082748330071567
1615031813899033000,2.704033203125,0.881771144336462,-0.09629413610696792,0.8749956588521599
1615031813909095200,2.71409521484375,0.9979730000276118,-0.2139268283188343,0.8303560143977403
1615031813919157200,2.7241572265625,1.12383875612095,-0.7007020450025796,1.1122361427411436
1615031813929219300,2.73421923828125,0.29157179353535173,-0.6556120264321565,1.0742226384282112
1615031813939282200,2.7442822265625,-0.03980243355631828,-0.7332260119885206,0.6237602596193552
1615031813949344300,2.75434423828125,-0.5525163936167955,-0.4473638282716274,0.17517653416395187
1615031813959406000,2.764406005859375,-0.5717605347257108,-0.3015986820310354,0.11034633459597826
1615031813969468200,2.77446826171875,-0.5837947444558144,-0.17004150936305523,0.4488037979468703
1615031813979530000,2.784530029296875,-1.1775052451830357,0.19694003768265247,0.7459329333484173
1615031813989592000,2.794592041015625,-0.7055611754715442,0.40559097142517564,0.7865154113665223
1615031813999655200,2.8046552734375,0.20923311754465101,0.6464841326028108,0.8343100127205252
1615031814009717200,2.81471728515625,0.5547989515960217,1.0625567505538462,1.0675357080101966
1615031814019779300,2.824779296875,0.7412411222703754,0.9453595271497964,1.1149109149083494
1615031814029841200,2.834841064453125,0.15117482326440512,0.21111060185432431,0.8396689094051718
1615031814039903200,2.8449033203125,-0.32609131825268267,-0.8704828576028346,0.35414866121858357
1615031814049966000,2.854966064453125,-0.052775896897912025,-1.422069276893139,0.5639370745584369
1615031814060028200,2.865028076171875,0.22778876493275163,-0.7140969486266374,1.485038651025295
1615031814070090000,2.875090087890625,-0.1847988604467362,-0.049830491095781325,1.8683245594009756
1615031814080152300,2.88515234375,-0.6619605186760426,-0.26965923693478105,1.3354296888381243
1615031814090214100,2.895214111328125,-1.0322533091615884,-0.8960223725289106,0.5763330302730202
1615031814100277200,2.90527734375,-0.4481313055127859,-1.1000304489016532,0.1769251313969493
1615031814110339000,2.915339111328125,0.08282916292138397,-0.7764169189393519,-0.01050546579286456
1615031814120401200,2.925401123046875,-0.22012560989372432,-0.4028448875874281,-0.29475363844186064
1615031814130463200,2.935463134765625,-0.5636024357765913,0.17687106312215328,-0.3174228586286306
1615031814140525000,2.945525146484375,-0.34082470393888653,0.9781243171542883,-0.7302778297074138
1615031814150587100,2.955587158203125,-0.18973814347982407,1.198637538126111,-1.3632203436918555
1615031814160650200,2.965650146484375,0.24114808578677474,0.4319879799634218,-1.7418245239920913
1615031814170712300,2.97571240234375,1.0466111395336688,-0.20906535976231097,-1.5095368402048945
1615031814180774100,2.985774169921875,1.1452536653976886,-0.16348375828266143,-0.5162682915411889
1615031814190836200,2.995836181640625,0.4171924888264388,0.3114046212524175,0.2137412426188588
1615031814200898000,3.00589794921875,-0.49690381198823447,0.15994973893761633,0.1763283345475793
1615031814210960100,3.015960205078125,-0.38806583612859247,-0.11856325106024741,0.25565993767678735
1615031814221023000,3.02602294921875,0.37452429057545955,0.15749883865416048,0.9445278986312449
1615031814231085000,3.0360849609375,-0.13055179501771927,0.2228758584499359,0.9847270764201879
1615031814241147400,3.0461474609375,-0.5126747970938682,-0.07829261547029018,0.4779729015469551
1615031814251209200,3.056209228515625,-0.48600481683313845,-0.2797995226770639,0.29195787024348974
1615031814261271300,3.066271240234375,-0.06350998381488025,-0.9649176295787095,0.41372167091071604
1615031814271334100,3.076334228515625,-0.17886494035311043,-1.1396633711099624,0.33534912207201123
1615031814281396200,3.086396240234375,-0.26504092948436736,-0.7996002261281013,0.043975700652971864
1615031814291458000,3.0964580078125,-0.04840360009782016,0.1462310101866722,0.5119765856966376
1615031814301520100,3.10652001953125,-0.31243221073448657,0.6184785198241471,0.3217252319976687
1615031814311582200,3.116582275390625,-0.08570669111907482,0.452467288890481,-0.06664667440541089
1615031814321644000,3.12664404296875,0.13894903648495674,-0.013801146337389944,-0.4842622840147465
1615031814331707100,3.13670703125,0.05712174408249557,-0.6113374158978462,-0.7712788984637707
1615031814341769200,3.146769287109375,-0.26159517294466494,-1.0609043071717024,-1.036496280493587
1615031814351831300,3.156831298828125,-0.25815811116807164,-0.8011649912267923,-0.9136312405861914
1615031814361893000,3.16689306640625,-0.046771688047051424,-0.04232990620732307,-0.40887328103147447
1615031814371955200,3.176955078125,-0.15459606641735882,0.911424524322152,0.20571699918247757
1615031814382018000,3.18701806640625,-0.8761363533198833,0.880068432071805,0.48045120129399
1615031814392080100,3.197080078125,-1.0611229183584452,-0.28331191471219064,-0.35714265540279444
1615031814402142200,3.20714208984375,-0.38105683414936065,-0.8422545419842005,-0.6657640026122331
1615031814412204300,3.217204345703125,-0.060609038208983834,-0.519956186273694,-0.3220316675983369
1615031814422266400,3.227266357421875,-0.27541031127478927,-0.30852935807704923,-0.26220884786359966
1615031814432328200,3.237328125,-0.27201365457382054,-0.5722562823534012,-0.41654491163790225
1615031814442391000,3.24739111328125,-0.31510698290169237,-0.6282043795466423,-0.7796282822012901
1615031814452453000,3.257453125,-0.07232113984525203,-0.6978507472246885,-0.9885416662722826
1615031814462515200,3.26751513671875,0.6417868416320532,-0.384793682590127,-0.7888738841261714
1615031814472577000,3.277576904296875,0.9129191467940807,-0.5207908835321664,-0.4830652562499046
1615031814482639000,3.28763916015625,1.0972159760028124,-0.16643208669424056,-0.331558936008811
1615031814492702200,3.2977021484375,0.6699690530866385,-0.206249133297801,-0.20327157879173754
1615031814502764300,3.307764404296875,0.17276823091320692,-0.1474643513739109,-0.5008927354939282
1615031814512826000,3.317826171875,0.10500351226329803,-0.3008364654868841,-0.8972864011153578
1615031814522888200,3.32788818359375,0.38646373469419776,-0.42170682444572444,-1.075184323067218
1615031814532950300,3.3379501953125,0.09063885029163211,-0.4575707495093345,-1.2441557189807295
1615031814543012000,3.34801220703125,-0.05482577863242477,-0.37957097950577734,-1.1374880728974939
1615031814553075200,3.3580751953125,0.24326401849482207,-0.5481622900605201,-1.0512633492536843
1615031814563137000,3.368136962890625,0.6297475173354149,-0.8367717266589403,-1.1603278273455797
1615031814573199400,3.378199462890625,0.25802553429696706,-0.7394435713291168,-1.3748140431128442
1615031814583261200,3.38826123046875,-0.4666091749569401,0.11320143176615237,-1.2824436563208699
1615031814593323300,3.3983232421875,-0.860515590339899,1.2449953846752644,-1.0093952153392136
1615031814603386000,3.40838623046875,-0.898638107985258,2.0238322242379185,-0.5973730418227613
1615031814613448200,3.4184482421875,-0.7609528078258037,2.2700077097326514,-0.16772621815800665
1615031814623510000,3.428510009765625,-0.3702957861602306,1.7721587258487939,0.13393909936845302
1615031814633572000,3.438572021484375,-0.005689726941054686,0.6632926440626382,0.32097324458658694
1615031814643634200,3.44863427734375,0.053382639752561224,-0.2203665059775114,0.3705028530396521
1615031814653696000,3.458696044921875,-0.1469330209761858,-0.49561143409013747,0.44822073736190793
1615031814663759000,3.468759033203125,-0.3911456819653511,-0.36393384991288186,0.5645389859743416
1615031814673821200,3.4788212890625,-0.5486053576529025,-0.2046118874847889,0.6702146984107792
1615031814683883300,3.48888330078125,-0.5314624996721744,-0.1495043327689171,0.8113765886396169
1615031814693945000,3.498945068359375,-0.5055255098611117,-0.2123363442569971,0.9220360808379947
1615031814704007200,3.509007080078125,-0.578944381815195,-0.3782645730823278,0.9214885299578308
1615031814714070000,3.519070068359375,-0.6761591398984194,-0.42152620718181133,0.8017895528659224
1615031814724132000,3.529132080078125,-0.6390507677316666,-0.3444792078584432,0.5968563244722783
1615031814734194200,3.539194091796875,-0.39872809991836544,-0.146714409789443,0.45030558081194755
1615031814744256300,3.54925634765625,0.0044803602844476695,0.02593874337673187,0.3605753332652151
1615031814754318300,3.559318359375,0.38235096561312676,0.06072247198820114,0.2675269010812044
1615031814764380200,3.569380126953125,0.5979437178501859,0.057715106865763664,0.19608254407048223
1615031814774443300,3.579443359375,0.8016647574424743,0.041834816166758534,0.12977686512246728
1615031814784505000,3.589505126953125,0.8301262972950935,-0.06196867265701293,0.02395546060502529
1615031814794567200,3.599567138671875,0.6881102744549512,-0.08858896855711937,-0.008132599181681872
1615031814804629000,3.60962890625,0.4528355376809835,-0.05995207213759422,0.03234247293919325
1615031814814691000,3.619691162109375,0.22524087054822592,-0.03146130619049072,0.13011851816698908
1615031814824754200,3.629754150390625,0.08967033405303955,-0.05179390012323856,0.22655410857126115
1615031814834816500,3.63981640625,-0.020630663563869892,-0.08112871567904949,0.2667255215704441
1615031814844878300,3.64987841796875,-0.1752659294804558,-0.12576105360984802,0.2485420684956014
1615031814854940400,3.6599404296875,-0.35129473309218884,-0.18986966090500354,0.23101474124193191
1615031814865002500,3.67000244140625,-0.5016442845135927,-0.2533364631652832,0.1810385580651462
1615031814875064300,3.680064208984375,-0.612870580281876,-0.3036281420320272,0.12024871992915868
1615031814885127400,3.69012744140625,-0.6797340757757425,-0.32306875556111336,0.02385799157992005
1615031814895189500,3.700189453125,-0.715239104399085,-0.2953735239058733,-0.07737550062537193
1615031814905251600,3.71025146484375,-0.7675491373509168,-0.2551777071177959,-0.1619640013694763
1615031814915313400,3.7203134765625,-0.8008592862784862,-0.205290517398715,-0.2085425049319863
1615031814925375500,3.73037548828125,-0.7714800470590591,-0.08833587057888508,-0.1563283335700631
1615031814935437600,3.7404375,-0.685557009775564,-0.0073369187593460075,-0.1211892156496644
1615031814945500400,3.75050048828125,-0.5763192940086126,0.03501812188923359,-0.09029343438744544
1615031814955562200,3.760562255859375,-0.4994756717702374,0.06212824713289737,-0.060131520357728
1615031814965624300,3.770624267578125,-0.4401438138902187,0.047179684326052664,-0.05771686043143272
1615031814975686400,3.780686279296875,-0.4229120720496401,-0.05806055930256843,-0.15110270787626504
1615031814985748500,3.79074853515625,-0.46797582366764545,-0.08455109134316444,-0.23319237754195926
1615031814995811600,3.8008115234375,-0.45577509826421736,-0.06742459997534751,-0.28227409609705206
1615031815005873400,3.810873291015625,-0.37756080872714515,-0.06778934163451195,-0.24908202059119938
1615031815015935500,3.820935546875,-0.2532621923526749,-0.10815642333626746,-0.1786035860031843
1615031815025997300,3.830997314453125,-0.09372574692368507,-0.16393559370338917,-0.08480974227935076
1615031815036059400,3.841059326171875,0.04248370852954685,-0.16395780553519726,0.008275660914182663
1615031815046122200,3.851122314453125,0.14180566802509129,-0.1334744044661522,0.06115677175223827
1615031815056184600,3.8611845703125,0.19867088006325065,-0.03921206644773483,0.10011135630756617
1615031815066246400,3.871246337890625,0.20244046172983943,0.019169979894161224,0.09625497314035891
1615031815076308500,3.88130859375,0.1640648461062461,-0.00724924047589302,0.015398352400958538
1615031815086370600,3.89137060546875,0.21702537885606288,0.13092238189578057,0.04206804040074348
1615031815096432400,3.901432373046875,0.3600444412589073,0.23012743701338767,0.1018985319852829
1615031815106495500,3.91149560546875,0.5713964506536722,0.2113122619062662,0.09338613970577717
1615031815116557300,3.921557373046875,0.7301175976444035,0.20044541545510292,0.018904606956243512
1615031815126619400,3.931619384765625,0.7797744126737117,0.2989016980320215,-0.04281505937576294
1615031815136681200,3.94168115234375,0.7690596880443393,0.3414730117797851,-0.0830365951269865
1615031815146743600,3.95174365234375,0.7231559419382363,0.2753226695239544,-0.11357114186137914
1615031815156806400,3.961806396484375,0.6651461629748344,0.20161504375636577,-0.11560732386410236
1615031815166868500,3.971868408203125,0.6031593701392411,0.14903203908205032,-0.13090543076097966
1615031815176930300,3.981930419921875,0.5343681579858064,0.12896189547777176,-0.17392565732002258
1615031815186992400,3.991992431640625,0.444994176530838,0.16728841126263141,-0.22567630282342432
1615031815197054500,4.002054443359375,0.3430874612390995,0.17938626081347464,-0.32155542838871476
1615031815207116300,4.0121162109375,0.21289624316208064,0.1052922660768032,-0.43050183305889367
1615031815217179600,4.0221796875,0.05202595531344414,-0.025929391026496884,-0.5407067133575677
1615031815227241500,4.032241455078125,-0.10897592302560806,-0.1561398252606392,-0.6688865185469388
1615031815237303600,4.042303466796875,-0.2635106511771679,-0.2763970207571983,-0.7988365482792258
1615031815247365400,4.052365478515625,-0.43467502709031103,-0.2992150017648935,-0.9080883656367659
1615031815257427500,4.062427490234375,-0.557141203873232,-0.15714578743278979,-0.9365151264369487
1615031815267489500,4.072489501953125,-0.5680283624600618,0.03895253872871399,-0.9125701872259377
1615031815277552400,4.082552490234375,-0.5178904128503055,0.19989596487879752,-0.8172048564016818
1615031815287614500,4.092614501953125,-0.4177174625486135,0.19075696513354778,-0.7080562071576714
1615031815297676300,4.10267626953125,-0.3431342960555106,0.05459960519373416,-0.6143588095456362
1615031815307738400,4.11273828125,-0.28400808028280733,-0.12297522228360175,-0.52947512524724
1615031815317800400,4.122800537109375,-0.28711430266983806,-0.2055225725889206,-0.4508300430774688
1615031815327862500,4.132862548828125,-0.3357558031767607,-0.1640828932195902,-0.38320641339868305
1615031815337925400,4.14292529296875,-0.3809492821216583,-0.042433366581797596,-0.32420302028805015
1615031815347987500,4.152987548828125,-0.39109482856094835,0.06191138951182365,-0.29024785145521165
1615031815358049300,4.16304931640625,-0.38888292466513813,0.12985504492521285,-0.331422742408514
1615031815368111400,4.173111328125,-0.311760010561347,0.1826204204291105,-0.4488680953547358
1615031815378173400,4.18317333984375,-0.12988595152013002,0.302682970136404,-0.5618783884629607
1615031815388236500,4.193236572265625,0.13963358468301593,0.466896796259284,-0.6516802399411797
1615031815398298600,4.203298583984375,0.4972095169365406,0.7010416522204875,-0.7061337146624922
1615031815408360400,4.2133603515625,0.9173783181600272,0.9914514162391423,-0.7339765380948782
1615031815418422500,4.223422607421875,1.3463520648688077,1.2140227387845515,-0.7561267028436064
1615031815428484400,4.233484375,1.7940214519582687,1.3092927925407887,-0.7706789598092436
1615031815438546400,4.24354638671875,2.266306517127156,1.2337217109888792,-0.7903241559997201
1615031815448609300,4.253609375,2.766223539456725,1.010016415977478,-0.8447986735090612
1615031815458671400,4.26367138671875,3.198829943579435,0.7784674217283726,-0.9767100664421915
1615031815468733200,4.273733154296875,3.5467870566815134,0.6011994682431221,-1.145201423753798
1615031815478795500,4.28379541015625,3.9103070650964975,0.5020160404354334,-1.3238178692385554
1615031815488857600,4.293857666015625,4.209734248307347,0.4003162458926439,-1.5013012190401553
1615031815498920400,4.30392041015625,4.1373108171314,0.25266777012348174,-1.5988821800872683
1615031815508982500,4.313982421875,3.5980174777030944,-0.026183073526620863,-1.6346972975730896
1615031815519044400,4.32404443359375,2.994403349533677,-0.3250134598881006,-1.5434633674651383
1615031815529106400,4.3341064453125,2.32681914575696,-0.5070230549424887,-1.3103358718529343
1615031815539168300,4.344168212890625,1.5205647224366663,-0.3694505675077438,-1.0260285163626075
1615031815549231600,4.354231689453125,0.6194716225147247,0.43120238254368304,-0.8805147145345806
1615031815559293400,4.36429345703125,0.3359738298416137,1.689568705445528,-0.6797289612092078
1615031815569355500,4.37435546875,0.1979588593363762,3.2143484152287245,-0.4341159319028258
1615031815579417300,4.384417236328125,-0.041809681725502014,4.8370676902383565,-0.22325769737437365
1615031815589479400,4.3944794921875,-0.7257914780735969,6.58216539068222,-0.31834786451905966
1615031815599541500,4.40454150390625,-0.9453308855772018,7.442469384098053,-0.44514644448310137
1615031815609604400,4.414604248046875,-1.3817141778901219,6.233165490528941,-0.3139483143858611
1615031815619666400,4.42466650390625,-1.297403763435036,3.3255028513371943,0.06864785815998911
1615031815629728300,4.434728271484375,-1.0326013188816607,1.2123720489680767,0.38301746669784187
1615031815639790600,4.44479052734375,-0.8032267460621892,0.06823766992390155,0.6007178222060203
1615031815649852400,4.454852294921875,-0.964476607812941,-0.8236305055350065,0.8073280439011752
1615031815659914500,4.46491455078125,-1.6933572840735316,-1.5523720655858515,1.0924271342910825
1615031815669977300,4.474977294921875,-2.2643267414867876,-2.0134727427870036,1.4113330710843204
1615031815680039400,4.485039306640625,-2.1322326854631304,-2.3933570260256527,1.6309304923854768
1615031815690101500,4.4951015625,-1.8115838505253195,-2.6970231619805096,1.5367745373509822
1615031815700163300,4.505163330078125,-1.5410343867525458,-2.938272296988964,1.102852812846005
1615031815710225400,4.515225341796875,-1.427294610325992,-3.0235224765121935,0.4483054930359125
1615031815720288500,4.52528857421875,-1.2404046958841384,-2.895522119542956,-0.2030612970419228
1615031815730350600,4.5353505859375,-0.9248062762036919,-2.6633810046195983,-0.6486318121559917
1615031815740412400,4.545412353515625,-0.6544222321256995,-2.513376905634999,-0.8635835996083915
1615031815750474500,4.555474609375,-0.5912323471106589,-2.446788756483793,-0.8086809198148548
1615031815760536300,4.565536376953125,-0.5804568322047591,-2.3263906912118193,-0.6910078955926001
1615031815770598400,4.575598388671875,-0.5492122375048697,-2.223560431334376,-0.5582924928002059
1615031815780661200,4.5856611328125,-0.4685847493462264,-2.1351544181287285,-0.4929512749701738
1615031815790723300,4.595723388671875,-0.33525603696107864,-2.0029431654661893,-0.4969260238200426
1615031815800785400,4.605785400390625,-0.053755117193609474,-1.8788731336832045,-0.36189898308441043
1615031815810847500,4.615847412109375,-0.06264569513574242,-1.8307839332967994,-0.18283523222357034
1615031815820909600,4.62590966796875,-0.1065209310889244,-1.8898785118222237,0.021755612473189828
1615031815830972400,4.635972412109375,0.08435732233673333,-2.0120044238001107,0.07116305585131048
1615031815841038000,4.6460380859375,0.6670356299832463,-2.1459183887273072,-0.0023733050025999546
1615031815851100000,4.656099853515625,1.3277625152111052,-2.21542154854238,-0.09476385779976844
1615031815861162000,4.666161865234375,1.7278106116868555,-1.8931781378895043,-0.04680953583940863
1615031815871224000,4.67622412109375,1.8119710962772368,-1.6608680961400268,-0.10717968725860118
1615031815881286100,4.6862861328125,2.149162923606485,-1.3648837468594313,-0.34700945698842406
1615031815891349000,4.696348876953125,2.3237806548438966,-0.9194418265610933,-0.8155975673355161
1615031815901411000,4.7064111328125,2.1766484580338,-0.35217326949238775,-1.2516098343789577
1615031815911473200,4.71647314453125,1.6884522686362267,-0.002586509361863136,-1.3075690374881028
1615031815921535000,4.726534912109375,1.1925003505453466,0.005619008925557136,-0.9985396209344267
1615031815931597000,4.73659716796875,1.1231658252954482,-0.27524551263451574,-0.6716027917683124
1615031815941660000,4.746659912109375,1.435721516279131,-0.47961716162264345,-0.6720844378054142
1615031815951722200,4.75672216796875,1.5096074212230741,-0.545213961648941,-1.0377858819127082
1615031815961784000,4.7667841796875,1.120487399866432,-0.49500703845620153,-1.4203797163709997
1615031815971846100,4.77684619140625,0.8449963880382477,-0.28520927276611324,-1.5221313872314988
1615031815981908000,4.786907958984375,1.0060931050539017,0.12486673511862754,-1.5448890163540838
1615031815991970000,4.796969970703125,1.6853962420664728,0.9316828839749097,-1.8199818226449191
1615031816002033000,4.807032958984375,2.48592249699831,1.9323802674651145,-2.1337601872913536
1615031816012095000,4.817094970703125,2.9965117199897766,2.8798224461078643,-2.195590035999566
1615031816022157000,4.827156982421875,3.7504105176508427,3.0602164226591584,-1.9266721189513802
1615031816032219000,4.837218994140625,3.886662570136785,2.340630813488364,-1.5741282625809312
1615031816042281200,4.84728125,3.3307752387821674,1.4092963045597076,-1.1309246227286756
1615031816052344000,4.857343994140625,2.6821277906656262,0.4649351407974958,-0.7339826755747199
1615031816062406100,4.86740625,2.2178253948137163,-0.3474000637412071,-0.4644268990144133
1615031816072468000,4.877468017578125,2.01630022129789,-0.9011924686431885,-0.2824519368819892
1615031816082530000,4.887530029296875,1.6648447446860373,-1.3339444187164307,-0.2122716084577143
1615031816092592000,4.897592041015625,1.2944457904122768,-1.7307523642271756,-0.1307126846678555
1615031816102654000,4.907654052734375,0.9620807987175881,-2.028181067097187,-0.04300327542424202
1615031816112717000,4.917717041015625,0.7937947547197342,-2.1640794838398696,0.11972937223017215
1615031816122779100,4.927779052734375,0.518369209343195,-1.9509820920825003,0.4377136641338467
1615031816132841200,4.93784130859375,0.12744213856458664,-1.297404201826453,1.0119837705276906
1615031816142903000,4.947903076171875,0.07321969612017273,0.4266302523225546,2.234819491973519
1615031816152965000,4.957965087890625,-0.0672165101826191,3.6113638660103082,3.857940333521366
1615031816163027000,4.96802685546875,-0.3853742589570582,6.922943405935168,5.1079813111484045
1615031816173090000,4.978090087890625,0.3291348506670445,9.082520317658782,5.773185926312208
1615031816183151900,4.98815185546875,2.36518613968268,9.527038693371415,5.9164966651380055
1615031816193214000,4.9982138671875,4.4411166538178914,7.432854583534598,4.912390349987149
1615031816203276000,5.008276123046875,4.65869206777215,3.733253046622872,2.8327029675364495
1615031816213338000,5.018338134765625,2.7782056536734103,0.3474520861893892,1.2330536024689673
1615031816223401000,5.02840087890625,0.9634499681789428,-1.8272610198676584,0.7058312245845795
1615031816233463000,5.038463134765625,-0.543531707650423,-3.29171690159142,0.4669765834972262
1615031816243525000,5.048525146484375,-1.7287492077112196,-4.51434087998271,0.20767010601162908
1615031816253587000,5.0585869140625,-2.4394062450170515,-5.545344554409384,-0.18134353236109016
1615031816263649000,5.06864892578125,-2.872504232048988,-6.18659663157761,-0.5547431297555565
1615031816273710800,5.0787109375,-3.2344273266613484,-6.236827520167827,-0.8672916603460907
1615031816283774200,5.088774169921875,-3.6961271387994286,-5.789511038169264,-1.0774085749879478
1615031816293836000,5.0988359375,-4.3048306990623475,-4.832400282949209,-1.2590847003042698
1615031816303898000,5.108898193359375,-5.084054492115974,-3.6434780831515785,-1.5171569598197936
1615031816313960200,5.118960205078125,-5.650401258164644,-2.084804287073016,-1.5852055369123816
1615031816324022000,5.12902197265625,-5.887234330296516,-0.2192290263801813,-1.4629115748912096
1615031816334084000,5.139083984375,-6.153033969193697,1.8590140024811028,-1.251047816582024
1615031816344147000,5.14914697265625,-5.936166995769739,3.8875411065369843,-0.9303756007686257
1615031816354209000,5.159208984375,-5.275197826218605,5.105870602604747,-0.8160282138377427
1615031816364271000,5.16927099609375,-4.090617455017567,5.163222721377015,-1.3674328468203545
1615031816374333200,5.179333251953125,-2.4838871917784213,3.700272568041086,-2.28715056771338
1615031816384395000,5.18939501953125,-0.8024994547009467,2.1928081501960754,-2.821758964195847
1615031816394458000,5.1994580078125,0.697771909834817,1.1718658510565758,-2.971916792437434
1615031816404520000,5.20952001953125,1.728944438022375,0.5273831214040517,-2.909441631563008
1615031816414582000,5.21958203125,2.4401146855473517,0.28456512964367864,-2.620870773409307
1615031816424644000,5.22964404296875,2.820968106079101,0.18060557347536085,-2.0530054194912313
1615031816434706000,5.239705810546875,2.6900673514932394,0.02769464713335037,-1.3062971178561449
1615031816444768000,5.24976806640625,2.0383780514627694,-0.19827800828814504,-0.5548930596202611
1615031816454831000,5.2598310546875,1.3104653434515,-0.37927754951715464,0.052448564639687535
1615031816464893200,5.26989306640625,0.663421823400259,-0.2280512152612209,0.5159472428932785
1615031816474955000,5.279955078125,0.08773264398872851,0.22836334995031354,0.9081222679063677
1615031816485017000,5.29001708984375,-0.4348206461060792,0.784861506679654,1.182275893650949
1615031816495079200,5.3000791015625,-0.6481494354665279,1.1394856764554977,1.4163897699519992
1615031816505142000,5.31014208984375,-0.6430716207455843,0.6561135462135076,1.1476561234295368
1615031816515203800,5.320203857421875,-0.20732509196624158,-0.37113106794059275,0.4894453126758337
1615031816525266000,5.330265869140625,0.49072892274558544,-0.6645294923812151,0.1372328802168369
1615031816535328300,5.340328369140625,1.1783141504131256,-0.8135936801671981,-0.1515001827612519
1615031816545390000,5.35039013671875,1.8531226063549517,-1.0821347267270087,-0.41084406964778897
1615031816555452200,5.3604521484375,2.4451925733335313,-1.3743348812937737,-0.6668725483760237
1615031816565515000,5.370514892578125,3.071629212555289,-1.5266034180790184,-0.8252809030905366
1615031816575577000,5.3805771484375,3.5801989124178886,-1.5536311257362365,-0.8769806951895356
1615031816585639000,5.390638916015625,3.7298359316557645,-1.600732484129071,-0.9300222572863102
1615031816595701000,5.400700927734375,3.5849151272848245,-1.5979448992371559,-1.05594756154716
1615031816605763000,5.41076318359375,3.1924107241868973,-1.4703174672335386,-1.1204793626904488
1615031816615826200,5.420826171875,2.599739722575247,-1.0998375566780567,-1.030917457447946
1615031816625888000,5.430887939453125,2.0239713404476642,-0.6502922927141189,-0.862718068820238
1615031816635950000,5.4409501953125,1.6669385020948946,-0.37806466659605503,-0.6407222080752253
1615031816646012200,5.45101220703125,1.4266720945134759,-0.2734966231405735,-0.40325931360721584
1615031816656074000,5.461073974609375,1.1815505019858479,-0.3962088105738163,-0.2755178998351097
1615031816666136000,5.471135986328125,0.9135685506135225,-0.5921586681753397,-0.24586218176186084
1615031816676199000,5.481198974609375,0.7083984447240829,-0.6395651469945908,-0.20236644664555786
1615031816686261000,5.491260986328125,0.5783224505245685,-0.5780681835025548,-0.2345677575483918
1615031816696323000,5.501322998046875,0.5638730694115162,-0.2028688432097435,-0.27830431568324565
1615031816706385200,5.51138525390625,0.46199558021426196,0.3574310438901186,-0.5623974439010023
1615031816716447200,5.521447265625,0.27049101158380506,0.9490835161089897,-0.9787339734852314
1615031816726509000,5.531509033203125,0.16002338869571686,1.5072557435303926,-1.4009078309208154
1615031816736572000,5.541572021484375,0.18154256206452846,1.9993337427973745,-1.816355302710831
1615031816746634000,5.551634033203125,0.35068127736896276,2.539020465457439,-2.165795347847044
1615031816756696000,5.561696044921875,0.5161936188697814,3.245062117922306,-2.2952561327576637
1615031816766758000,5.5717578125,0.5985100830286741,3.987235406476259,-2.1911489848122
1615031816776820000,5.581820068359375,0.5127227278888226,4.349630794775486,-2.0492004742503167
1615031816786883000,5.591883056640625,0.48555736532658333,4.0979210560292,-2.0037667568087576
1615031816796945200,5.601945068359375,0.7230163142718374,3.316269743567705,-2.023067669606209
1615031816807007000,5.612007080078125,1.192661970847845,2.552960143482685,-1.809120967543125
1615031816817069000,5.622069091796875,1.7877151914209126,1.9778543169170617,-1.5370423945069311
1615031816827131100,5.632131103515625,2.381476034095883,1.616430403998494,-1.3871446785062551
1615031816837193200,5.642193115234375,2.845154745091498,1.3598936834871769,-1.397948981115222
1615031816847256000,5.652256103515625,3.173415808598697,1.5210370161235331,-1.4924500963255762
1615031816857318100,5.662318115234375,3.393811248409748,2.8362498463630677,-1.529297187207639
1615031816867380200,5.672380126953125,3.8688270537167786,4.502652195754647,-1.5824506852462887
1615031816877442000,5.682442138671875,4.949748897522688,5.419743075275421,-2.131047567331791
1615031816887504100,5.692504150390625,6.526510138955712,5.902239007204771,-3.2802403988093136
1615031816897566200,5.702566162109375,7.643363712364435,5.923219835913181,-4.54443235912472
1615031816907629300,5.71262939453125,6.7174313547402615,5.228364763373136,-5.299515105873346
1615031816917691100,5.722691162109375,3.6238843248873946,4.1985289636820555,-5.283625462824106
1615031816927753200,5.732753173828125,0.762770670902729,3.102616471493244,-4.5720372821480035
1615031816937815300,5.742815185546875,-0.11448679540157318,2.5257781220465896,-3.0710315389230844
1615031816947877000,5.752877197265625,-0.27314061277713625,1.7375749037235975,-1.448503110310435
1615031816957940200,5.762940185546875,-0.4479951119124889,1.5049053810119628,-0.011790098775923252
1615031816968002000,5.773001953125,-0.25500585768222805,1.922244657897949,1.590171050365269
1615031816978064100,5.783064208984375,-0.3626759588062763,2.288532377460599,3.0894448552310463
1615031816988126200,5.793126220703125,-0.9990776733338832,3.182138336497545,4.719577913628518
1615031816998188300,5.803188232421875,-2.270399777790159,4.944721424749494,6.59910015887022
1615031817008250000,5.81325,-3.9391877071440216,6.631057139623165,9.60834042752981
1615031817018313200,5.823313232421875,-5.286482605820894,5.431075785672665,11.411520314586163
1615031817028375000,5.833375,-6.022788463646173,0.25878303813338277,9.504237078976631
1615031817038437000,5.84343701171875,-7.85861272919774,-3.9277836850762364,5.825467902213335
1615031817048499200,5.853499267578125,-8.56860341154933,-4.262447016841173,3.466554120798409
1615031817058561000,5.86356103515625,-9.107119921386241,-3.790889827555418,2.0140886827282607
1615031817068624400,5.873624267578125,-8.633546131581067,-3.609068448549509,1.2021756491243838
1615031817078686200,5.883686279296875,-6.458866343271732,-2.361170328170061,0.5485667792081833
1615031817088748300,5.893748291015625,-1.369022454099357,0.01865735419690609,-0.6376970150351524
1615031817098810000,5.90381005859375,6.724461399507522,3.2752818996191024,-3.150925744371116
1615031817108872200,5.9138720703125,7.850131316578388,4.709470653373002,-5.369992663678526
1615031817118934300,5.923934326171875,2.7906761359289285,3.6936867599099874,-5.677020969542861
1615031817128997000,5.9339970703125,-2.0974115474507213,1.4839093547344206,-4.982609549117088
1615031817139059000,5.944058837890625,-6.058091247695684,-0.22364567377865313,-3.7263568573683497
1615031817149121300,5.954121337890625,-6.278048003828525,-1.0325497348248958,-1.9514127385847269
1615031817159183400,5.964183349609375,-4.91893407254219,-1.6900024206876754,-0.4556963339395821
1615031817169245200,5.9742451171875,-4.282028500145674,-2.279330249351263,0.7296691962897777
1615031817179307300,5.984307373046875,-4.26411290422678,-2.8767963762849567,1.7768091820031404
1615031817189370000,5.9943701171875,-4.598585389594733,-3.295732566973567,2.4799235488444564
1615031817199432200,6.00443212890625,-4.769043663065135,-3.5675936978667973,2.915145688423514
1615031817209494000,6.014493896484375,-4.792054244035482,-3.7577065198779103,3.1372672213748096
1615031817219556000,6.02455615234375,-4.780689969456196,-3.9683956814497705,3.018799539643526
1615031817229618200,6.0346181640625,-4.546738297979533,-4.1698260162889955,2.522278589493036
1615031817239681300,6.044681396484375,-4.036538951088488,-4.392552821657062,1.8992039740502833
1615031817249743000,6.0547431640625,-3.469443997021019,-4.8128509483486415,1.4692315716929734
1615031817259805200,6.06480517578125,-3.2815409600138663,-5.40737926826477,1.134283723898232
1615031817269867300,6.0748671875,-3.0731647515594958,-5.852841646829247,0.90929306525141
1615031817279929000,6.08492919921875,-2.943512827990949,-6.19439298454225,0.7600060284949839
1615031817289991200,6.0949912109375,-2.828184613329172,-6.346107394576072,0.5733223041497171
1615031817300054000,6.105053955078125,-2.3772256831750274,-6.350812795788049,0.3343868529111147
1615031817310116000,6.1151162109375,-1.9111138998135924,-6.144625037288665,0.16969006557688115
1615031817320178200,6.12517822265625,-1.0524528512991964,-5.561954328426719,0.3873815071262419
1615031817330240300,6.135240234375,-0.24749387461692093,-5.0404374687075615,0.6751295045897364
1615031817340302300,6.14530224609375,0.26048984205126763,-4.679010048657656,0.9856691795758903
1615031817350365200,6.155365234375,0.4569873966634273,-3.8965316377222536,1.0549779858626425
1615031817360427300,6.16542724609375,1.5540915828548372,-2.4132483059316874,0.43795814041420816
1615031817370489000,6.175489013671875,4.414202927929162,0.4062783691674471,-0.6725383190527557
1615031817380551200,6.18555126953125,8.544812201595306,5.190613417127728,-2.282701333219558
1615031817390613000,6.195613037109375,12.261173150128126,11.58193182630539,-3.5209178714096545
1615031817400675000,6.205675048828125,12.221438521111011,17.661894714069366,-3.937050402854383
1615031817410738200,6.21573828125,10.041299298352003,19.570079282432793,-4.966942024385929
1615031817420800300,6.22580029296875,7.895144178259372,14.43415782495737,-6.332295726844668
1615031817430862000,6.235862060546875,5.222109210109711,7.25384767742753,-4.726188271678984
1615031817440924200,6.245924072265625,3.202403710412979,2.4575509735167027,-2.1837216112904247
1615031817450986200,6.255986328125,1.8314391823351381,-1.3071201246768236,-0.2844957176692784
1615031817461048000,6.266048095703125,0.29290859509706496,-4.532743382635712,1.086833990459144
1615031817471111200,6.276111083984375,-0.26939795565009117,-6.50113195207119,2.478743399149179
1615031817481173200,6.28617333984375,0.2555842420920729,-5.08904163287878,4.818025720638037
1615031817491235300,6.2962353515625,-1.1535033881530166,-0.7259206574112177,7.072296932056545
1615031817501297200,6.306297119140625,-2.7932500780701637,4.295933691379427,8.107689196830988
1615031817511359200,6.316359130859375,-2.2211937022030352,8.59077783395648,8.992401655316351
1615031817521422000,6.326422119140625,-1.17027726669088,11.020676245915888,9.520698968955873
1615031817531484200,6.336484130859375,0.043804070413112635,9.910825829267502,7.773342091408371
1615031817541546000,6.3465458984375,2.3836460716113446,5.275725649484992,3.2966113956347107
1615031817551608000,6.356608154296875,-2.8912960262805223,-1.683095125517249,0.7420220435149967
1615031817561670100,6.366670166015625,-6.394782870417833,-6.439284275445342,0.8543668584518134
1615031817571732200,6.376732177734375,-5.1289609708130355,-8.701270006763934,0.9192078716747463
1615031817581795300,6.38679541015625,-3.719871587002277,-9.759607093796133,0.5331247337959707
1615031817591857200,6.396857177734375,-3.5539959651470183,-9.698158061099052,-0.31450726344287394
1615031817601919200,6.406919189453125,-4.3430806424796575,-9.219340525421499,-1.1442252721980213
1615031817611981000,6.41698095703125,-5.180010190048813,-8.218031147512793,-1.3990128109544515
1615031817622043100,6.427043212890625,-5.998768121111393,-6.574764759036898,-1.247054947553575
1615031817632105200,6.437105224609375,-6.501492017555236,-4.199467705836891,-0.7133747718319297
1615031817642168300,6.447168212890625,-7.503056247007846,-0.8615385036468506,0.14147270974367857
1615031817652230100,6.457230224609375,-9.216173001301287,3.4523762501031157,1.0084987048909066
1615031817662292200,6.467292236328125,-10.288246937263011,7.153041032332181,1.3428870191067457
1615031817672354300,6.477354248046875,-9.286395123040675,8.84098768953383,0.968432359701395
1615031817682416000,6.487416015625,-6.650092679482698,8.219712816989421,0.051048634713888166
1615031817692479200,6.497479248046875,-3.0109248607456682,5.5989533950001,-1.6702520105570553
1615031817702541000,6.507541015625,0.7662485761463642,2.802345238673687,-2.8702710661694404
1615031817712603100,6.51760302734375,2.644698515981436,1.3945114078819751,-2.8532863213598727
1615031817722665000,6.5276650390625,3.1163866381704803,1.2023013213306664,-2.3164070573359727
1615031817732727300,6.537727294921875,3.627755028840899,0.44204993977248663,-2.1109788850322366
1615031817742789400,6.547789306640625,3.881988148584962,-1.429040284949541,-2.4465496870309114
1615031817752852200,6.557852294921875,3.6493402531832455,-2.9704391211003065,-2.678167362602055
1615031817762914300,6.567914306640625,2.935683449539542,-3.1744869449615476,-2.3389459291413424
1615031817772976000,6.57797607421875,1.6414572932273148,-1.9758809710174798,-1.6475065102636812
1615031817783038200,6.5880380859375,0.6132851158995181,-0.3621750235468149,-1.1288257507532835
1615031817793100000,6.59810009765625,0.1682875053025782,0.9898901582717895,-0.7194821487963199
1615031817803163100,6.6081630859375,0.06962086791060865,1.4725737217277288,-0.43714960051029916
1615031817813225200,6.61822509765625,0.8424801674336194,1.1662515183061362,-0.2875406383231282
1615031817823287300,6.628287353515625,2.5282605865120886,0.5435480742633343,-0.28246172762364147
1615031817833349000,6.63834912109375,3.600129355290532,-0.04495674757957458,-0.17598258984982967
1615031817843407000,6.648406982421875,3.879546016129851,-0.37367081555128095,0.010623977605998515
1615031817853469200,6.65846923828125,3.4270652832359074,-0.8447428516685962,0.09794161105304956
1615031817863532000,6.668531982421875,2.7195062119454145,-1.3401345055282115,0.21034780078828333
1615031817873594000,6.678593994140625,2.1655261755168436,-1.8187345990628003,0.21380524776577947
1615031817883656000,6.688656005859375,1.7903643907554447,-2.0557044493168593,0.20551175893396137
1615031817893718000,6.698718017578125,1.493718801087141,-2.1054098527282474,0.2461544427067041
1615031817903780000,6.708780029296875,1.1963638941057027,-1.9718553687632083,0.2893599627047777
1615031817913842000,6.718842041015625,0.8557770175106822,-1.5790864695101976,0.3438806574434042
1615031817923905000,6.728905029296875,0.39428120351210233,-0.9386544765532017,0.4367912885919213
1615031817933967000,6.738967041015625,-0.1699900714367628,-0.14949088876545427,0.46293315332531926
1615031817944029200,6.749029296875,-0.542384875702858,0.4587918157368898,0.2823521297693252
1615031817954091000,6.759091064453125,-0.6366635803341865,0.8183961120128631,-0.06677490389496088
1615031817964153000,6.769153076171875,-0.5745014309316874,1.5021253949046134,-0.462739676579833
1615031817974216000,6.7792158203125,-0.34948739140927787,2.170257295691967,-0.9655147186890244
1615031817984278000,6.789278076171875,0.021652005968242884,2.4899130279392003,-1.4802131305649875
1615031817994339800,6.79933984375,0.5435784694015979,2.4520401011407373,-2.0095599532574413
1615031818004402200,6.809402099609375,0.8960390314027666,2.461046998938918,-2.521187579385936
1615031818014464300,6.81946435546875,0.9752809104219079,2.924467058998346,-3.0351635222062465
1615031818024526000,6.829526123046875,0.9323873789824545,3.5193460920482873,-3.6166038124904034
1615031818034589000,6.8395888671875,0.9984916901394725,3.6222178529798983,-4.282821404089034
1615031818044651000,6.849651123046875,1.4813243066772819,3.3251422013312575,-4.8727159267246725
1615031818054713000,6.859713134765625,2.4027666594058275,3.031033582794666,-5.32811693097949
1615031818064775000,6.86977490234375,3.520283080637455,2.8930758954346176,-5.52218930427134
1615031818074837000,6.8798369140625,4.76833551479578,3.050257923224568,-5.175587112909555
1615031818084899000,6.889899169921875,5.720114845860004,3.86114000634551,-4.26001862065047
1615031818094962200,6.899962158203125,6.286392638325691,4.89754290946722,-3.1543802687391636
1615031818105024000,6.91002392578125,6.749907975453138,5.701386179992556,-2.022641553148627
1615031818115086000,6.920086181640625,7.115428802296519,5.829163834121823,-1.2659633539021014
1615031818125148200,6.930148193359375,6.974667747953534,5.497119160422683,-0.7887070761919022
1615031818135210000,6.9402099609375,5.991496084281802,4.812437691372633,-0.6215183259114623
1615031818145273000,6.950273193359375,4.183416150224208,3.91324896376729,-0.6533592790693045
1615031818155335000,6.9603349609375,1.8507716593146324,2.6563176421046255,-0.8848118272066116
1615031818165397000,6.97039697265625,0.4580648166365921,2.004603792154789,-1.1241048597112298
1615031818175459000,6.980458984375,-0.14699202115442603,1.5376222402215003,-0.5683914236187935
1615031818185521200,6.990521240234375,-0.44591538302898404,1.243470367065072,0.398689813734591
1615031818195583200,7.000583251953125,-0.4170645515978336,1.7997312079071996,1.7421382661163807
1615031818205646000,7.01064599609375,-0.19132102875709533,3.089339641290903,3.5305747575491666
1615031818215708000,7.0207080078125,-0.2655787626881152,4.627443527549505,6.053187109041214
1615031818225770000,7.03077001953125,-1.6686054123938083,6.470988158220052,9.594154081267117
1615031818235832000,7.04083203125,-4.417655114209651,7.310509475848078,12.859260623830556
1615031818245894000,7.050893798828125,-5.965857200634479,4.930231711626052,13.30497259324193
1615031818255956000,7.0609560546875,-6.061315470439196,-0.38901217706799507,9.305815278303623
1615031818266019000,7.07101904296875,-6.926773777878284,-3.0224709216326473,5.453658204358816
1615031818276081200,7.0810810546875,-7.945791830956935,-2.9869010110795498,3.2035049496531482
1615031818286143000,7.09114306640625,-8.497596861433982,-2.829285268047452,1.447539233714342
1615031818296205000,7.101205078125,-6.52634588830471,-2.5603660358250138,0.4758513793483376
1615031818306267100,7.11126708984375,-2.7232421836033462,-1.2083756728082895,-0.5845597374789416
1615031818316330000,7.121330078125,3.890083192235231,1.435571732544899,-2.3768033661097285
1615031818326391800,7.131391845703125,7.8105229442894455,3.1670787145316597,-4.141378504961729
1615031818336454100,7.1414541015625,3.634068742032349,2.608278126078844,-4.453254543118178
1615031818346516200,7.15151611328125,-2.034531605167687,2.3028934957683087,-4.752677342414856
1615031818356578000,7.161578125,-5.47334490160346,2.034805453673005,-4.643083872012793
1615031818366640000,7.17164013671875,-6.865649739351868,1.1789508408814668,-3.6673753838285803
1615031818376703000,7.181702880859375,-7.035183883714676,-0.38898587358295916,-2.024069247864187
1615031818386765000,7.19176513671875,-6.798491096836328,-1.959602620911598,-0.8531975224114954
1615031818396827000,7.201826904296875,-6.513561225533485,-2.8999434431165456,0.004351034816354513
1615031818406889000,7.211888916015625,-5.563548319619894,-3.4589304940521717,0.9399170438349247
1615031818416951000,7.221950927734375,-4.891172789913416,-3.917294439765811,1.7616591052748263
1615031818427013000,7.23201318359375,-4.752195696377754,-4.340662475422024,2.4107693485975266
1615031818437076000,7.242075927734375,-5.168260715544223,-4.759687513437867,2.7418974919736385
1615031818447138000,7.252137939453125,-5.353962150853872,-4.974144503110647,2.63937469061017
1615031818457200000,7.2622001953125,-4.455081758545339,-5.188171284672618,2.212511652445048
1615031818467262000,7.272261962890625,-3.723447399662435,-5.585068077510595,1.6583422309242188
1615031818477324000,7.282323974609375,-3.40374812053442,-6.009899755978584,1.1592360865861178
1615031818487387000,7.292386962890625,-2.990072042331099,-6.2700084897577755,0.8542239428497851
1615031818497449200,7.30244921875,-3.0009894499257204,-6.30454028943479,0.4934061791308224
1615031818507511000,7.312510986328125,-3.0207249547481534,-6.150892280989885,0.23423662589788435
1615031818517573000,7.322572998046875,-2.5617723954916,-5.930984040173888,0.27117592510804533
1615031818527635200,7.33263525390625,-1.8957427276805041,-5.457111559683084,0.4182126987196505
1615031818537697000,7.342697021484375,-0.9952391180843114,-4.853298109549284,0.5311038954928518
1615031818547760000,7.352760009765625,-0.1655582264691591,-4.1368455377072095,0.5585543586067855
1615031818557822000,7.362822021484375,0.7094915006577969,-3.389707904744148,0.5810080363467335
1615031818567884000,7.372884033203125,1.4172098541632294,-2.4721225197046994,0.6855858705438673
1615031818577945900,7.38294580078125,2.733727921782434,-0.7496300343006849,0.3752775200955569
1615031818588008000,7.393008056640625,6.141612411469221,2.500538466849923,-0.5394499912947416
1615031818598071000,7.403071044921875,9.300983620363473,6.622268853011727,-2.080351837708801
1615031818608133000,7.413133056640625,10.750048456209898,10.605334864848851,-3.4644241230323907
1615031818618195000,7.42319482421875,9.862066182273626,12.135325587278604,-3.6580443686425683
1615031818628257000,7.433257080078125,9.099092097753285,10.635990699875354,-3.4836639532923694
1615031818638319000,7.443319091796875,9.037842387020588,7.480536956685781,-2.917697126471996
1615031818648381000,7.453380859375,6.061311963307857,4.497863207912445,-2.138170989470929
1615031818658444000,7.463444091796875,3.6948952589169144,1.942129508063197,-0.784006497285515
1615031818668506000,7.473506103515625,2.544711662836373,-0.270597394567728,0.18667627169117332
1615031818678568200,7.483568115234375,1.8068366559982298,-2.2290321407437323,0.6697795218639075
1615031818688630000,7.493630126953125,0.9737351422846316,-4.003191100499033,0.792465259681642
1615031818698692000,7.503692138671875,0.8159573405586182,-5.16324960938394,1.0075320518158375
1615031818708754200,7.513754150390625,1.053631393559277,-4.4657051516294475,2.1464910740487277
1615031818718817000,7.523817138671875,-0.868358851186186,-1.0833733286112546,4.830605216225981
1615031818728878800,7.53387890625,-2.6508584999158975,4.779143324536085,8.20171538800597
1615031818738941000,7.54394091796875,-3.8164778577983376,11.562027686917782,11.656328603380917
1615031818749003000,7.5540029296875,-3.712934481215477,15.548417874741553,13.505580505782365
1615031818759065000,7.564065185546875,-1.3816867053613067,14.18801682625413,11.024723475480078
1615031818769128200,7.574128173828125,3.06010185636878,6.518671115893125,3.740494980575144
1615031818779190000,7.58418994140625,-2.9985706983461973,-2.9233026913940905,-0.19922902540266513
1615031818789252000,7.594252197265625,-5.600971749085188,-7.390004452845454,-0.2974117517352104
1615031818799314000,7.60431396484375,-4.375046683321893,-9.160261728987097,-0.15067366880923508
1615031818809376000,7.6143759765625,-3.7062133562669155,-9.956450100845098,-0.6575877104192972
1615031818819438000,7.62443798828125,-4.000999727934599,-9.550860298463702,-1.480865164732933
1615031818829501200,7.634501220703125,-4.954781630992889,-8.607385269886255,-2.0952268968880174
1615031818839563000,7.64456298828125,-6.319723245519399,-7.298761754909157,-2.4390888496309517
1615031818849625000,7.654625,-8.431310325577854,-5.1764826004445545,-2.580527364844084
1615031818859687200,7.664687255859375,-9.973513463848828,-2.2110534164607523,-2.0778391242355108
1615031818869749000,7.6747490234375,-10.723497133892774,1.5322253496140241,-1.24026601806581
1615031818879811300,7.684811279296875,-10.397751268076895,5.644044582614303,-0.5932093462720514
1615031818889874200,7.694874267578125,-8.910276914337278,8.56705501306355,-0.45327451362013815
1615031818899936300,7.704936279296875,-7.263800916165113,9.889273338150977,-0.8544353936433792
1615031818909998000,7.714998046875,-4.618813646370172,8.68083804410994,-1.4228683183163404
1615031818920060200,7.72506005859375,-1.7481567957535384,5.475450349450111,-2.276617775522172
1615031818930122200,7.735122314453125,1.351394735211134,2.345012389573455,-3.2076006945341824
1615031818940185000,7.74518505859375,3.5099008028328416,-0.1494897197216749,-2.9681287983313203
1615031818950247200,7.7552470703125,3.9608372288942335,-1.951251556673646,-2.496130879540741
1615031818960309200,7.765309326171875,3.3309704690933226,-2.5682144112378356,-2.029204857186973
1615031818970371300,7.775371337890625,2.820375400882959,-2.7654414491683244,-1.4334148467719554
1615031818980433200,7.78543310546875,2.3831372453063726,-3.102077542310953,-0.7541606634676457
1615031818990495200,7.7954951171875,1.8355419414788483,-3.312341756469011,-0.17645663710236548
1615031819000558000,7.80555810546875,1.2317577174395322,-2.9834692830651997,0.36428690113425255
1615031819010620200,7.8156201171875,0.49892282366044816,-1.6360621561855078,1.1111197059318423
1615031819020682000,7.825681884765625,0.0706231037557125,0.012958850294351577,1.7762617772534488
1615031819030744000,7.835744140625,-0.022795330784469842,1.3199626551151276,1.9629957704812286
1615031819040806100,7.84580615234375,-0.12736673524081707,1.3090356029093264,1.1115130891636014
1615031819050868200,7.8558681640625,0.36170331438183784,0.8716115693718195,0.2821703434616327
1615031819060931300,7.865931396484375,1.4017866595819592,0.49145489893257616,-0.06986819373518229
1615031819070993200,7.8759931640625,2.9791520043879745,-0.26050094796717166,-0.1335001234292984
1615031819081055200,7.88605517578125,4.535443873766065,-1.0782470716387034,0.03327420083135366
1615031819091117000,7.896116943359375,5.348364769238233,-1.7153619028717277,0.18904373147487638
1615031819101179100,7.90617919921875,5.112746918115019,-2.0443851829230786,0.09709580787867307
1615031819111241200,7.9162412109375,3.805676770059764,-1.7351280950933694,-0.22851737146824597
1615031819121304300,7.92630419921875,2.3839520688205957,-1.1078139423847198,-0.6581710632652044
1615031819131366100,7.9363662109375,1.4969962153226137,-0.7436725872009993,-0.9690174661129712
1615031819141428200,7.94642822265625,0.9636725979536771,-0.43900925690233705,-1.1522262078240513
1615031819151490300,7.956490234375,0.6584978110015391,-0.10848317107260226,-1.3436276083409786
1615031819161552100,7.96655224609375,0.6014952363193035,0.3510211768478155,-1.4700193610697985
1615031819171615200,7.976615234375,0.6438081913918257,1.041591119414568,-1.4346397123917936
1615031819181677000,7.986677001953125,0.689804218891263,1.8966957906216382,-1.3197615795850752
1615031819191739100,7.9967392578125,0.7399637958109379,2.7275392962753773,-1.2802233499228954
1615031819201801000,8.006801025390626,0.7925931238450109,3.2160242394864555,-1.4084084158092736
1615031819211863300,8.01686328125,0.8149481635160744,3.3315818789899345,-1.7391233022093773
1615031819221925400,8.02692529296875,0.8316670969963074,3.4507027639329433,-2.163461059680581
1615031819231988200,8.03698828125,0.7506807123973965,3.8512329448372125,-2.580441147865355
1615031819242050000,8.047050048828124,0.6342302157074212,4.294700350192189,-2.8991683670908213
1615031819252112100,8.057112060546874,0.6244353824019432,4.410815623578429,-3.08817001298964
1615031819262174200,8.06717431640625,0.8401011633425951,3.9714223357945677,-3.1947908973217007
1615031819272236000,8.077236083984374,1.2900557387597857,3.246018395733833,-3.07584244633615
1615031819282298000,8.087298095703124,1.9048706215098499,2.451042906796932,-2.512357207198441
1615031819292361200,8.097361328125,2.464435180072486,1.4357061725795268,-2.0760674383878706
1615031819302423300,8.10742333984375,2.5551521005690097,1.5298901846647261,-1.671435082861781
1615031819312485000,8.117485107421874,2.2557057742662727,2.978873771968484,-1.0831447805523873
1615031819322547200,8.127547119140624,2.1513260929897426,4.067736345645785,-0.736824621002376
1615031819332609300,8.137609375,2.636490659606457,4.349737177759408,-1.051596672861278
1615031819342672100,8.147672119140625,3.9983106349810957,4.945572488620877,-1.5629805533617733
1615031819352734200,8.157734130859374,6.945418272593617,5.490014881375432,-2.0523352651447055
1615031819362796000,8.167796142578124,11.646218712776898,4.769478839612007,-2.6643706001788376
1615031819372858400,8.1778583984375,11.5785930372715,3.059454790636897,-2.9736817562833426
1615031819382920200,8.187920166015624,5.292941572701931,1.687386685231328,-2.8173382251441477
1615031819392982300,8.197982177734374,0.6422540938176214,0.48081192436516285,-2.3031281813070175
1615031819403045000,8.208045166015625,-1.5803116273909805,-0.022931378254294393,-1.5864724881082772
1615031819413107200,8.218107177734375,-2.3107471318781374,0.08257657639980316,-1.1319713553026318
1615031819423169000,8.2281689453125,-2.1378011332452296,0.37394437179565426,-0.37499534215331076
1615031819433231000,8.238231201171875,-1.3121230475306511,1.5828928760558365,0.9459525246068835
1615031819443293200,8.248293212890625,-0.5236496339641511,3.2838235179930924,2.618078804603219
1615031819453355000,8.25835498046875,-0.5038168062470854,5.159834832504392,5.009510415524244
1615031819463418400,8.26841845703125,-2.2851577864609656,7.500403102150559,8.010380915245413
1615031819473480200,8.278480224609375,-5.433119274199009,8.764980554652213,11.514669723415373
1615031819483542300,8.288542236328125,-7.658700397706031,6.050362114748358,11.358542757636307
1615031819493604000,8.29860400390625,-8.354096737515926,0.5880459721595048,7.093676989215612
1615031819503666200,8.308666259765625,-8.488820849782227,-1.4006401198953389,3.8429762808844443
1615031819513729000,8.31872900390625,-8.402780396664141,-1.5521581305742262,1.5244140913411974
1615031819523791000,8.328791015625,-6.6154211790740485,-2.1087796214222907,-0.08850508966594935
1615031819533853000,8.33885302734375,-1.4473112701773643,-1.5993056661963463,-1.499313844615221
1615031819543915300,8.348915283203125,5.496206721752881,0.7052689145267009,-3.5318861324086783
1615031819553977300,8.358977294921875,5.400501783710718,2.001082632291317,-5.028032160642743
1615031819564039200,8.3690390625,0.3131117174312472,2.0133955858975647,-5.392172931304573
1615031819574102300,8.379102294921875,-2.9796999936595556,2.188478596559167,-5.403816607347131
1615031819584164000,8.3891640625,-4.731793836601078,1.446505799013376,-4.442367530661821
1615031819594226200,8.39922607421875,-5.49137915546596,0.2749965063095093,-2.934404223383963
1615031819604288000,8.4092880859375,-6.232258312556147,-1.1555132666707038,-1.8340666082292794
1615031819614350000,8.41935009765625,-7.108783372932672,-2.364402734220028,-1.202790858413279
1615031819624412200,8.429412109375,-7.098184822028875,-3.0133745919853445,-0.5195205713354051
1615031819634475300,8.439475341796875,-6.776334210085868,-3.4299405464112755,0.3710260001309216
1615031819644537000,8.449537109375,-6.388222196727991,-3.844629601049423,1.341268331863731
1615031819654599200,8.45959912109375,-6.422910063749551,-4.4192683946251865,2.0922192395046353
1615031819664661200,8.4696611328125,-6.208987911605835,-5.00895804233849,2.633396200722456
1615031819674723000,8.47972314453125,-5.571559776639938,-5.307506689149141,2.8132600159198042
1615031819684786200,8.4897861328125,-4.3106256490767,-5.8828948397874825,2.598936297237873
1615031819694848000,8.499847900390625,-3.4357954099193213,-6.4886822203427545,2.1157913998804987
1615031819704910300,8.509910400390625,-3.251502087841928,-6.62793287012279,1.536429523305595
1615031819714972200,8.51997216796875,-3.1302213945165276,-6.202093475916981,0.9835958804331719
1615031819725034200,8.5300341796875,-2.4632170364543793,-5.799125254210829,0.6444488273829221
1615031819735096300,8.540096435546875,-1.7656994667068122,-5.580107240232825,0.5378717821925878
1615031819745159200,8.5501591796875,-1.3556751890093088,-5.438322103539109,0.7646526852570473
1615031819755221200,8.56022119140625,-0.3304635419875383,-5.2036728051871055,1.2778845317117868
1615031819765283000,8.570282958984375,0.654002691539377,-4.893157826250791,1.6506724269486963
1615031819775345200,8.58034521484375,1.5011331689968703,-4.609361342892051,2.006898625093698
1615031819785407000,8.590406982421875,1.4417917761035264,-3.7818881904542443,2.417135084237158
1615031819795469300,8.60046923828125,2.6656781756460664,-1.818943857899308,2.4578493719413874
1615031819805532200,8.6105322265625,7.230084524524211,1.6453069543927907,1.4941050239257514
1615031819815594200,8.62059423828125,10.83141390325427,7.113247366604209,0.38884544219896194
1615031819825656000,8.630656005859375,10.422596955519914,12.956099534338712,-0.49933922244161366
1615031819835718100,8.64071826171875,7.046783136093616,16.11885629401803,-2.4891385364353655
1615031819845784000,8.6507841796875,8.152617887359858,15.456486610019207,-4.893135614418983
1615031819855847000,8.660846923828124,10.251779785609244,10.15426750588417,-5.573316849440336
1615031819865908700,8.67090869140625,6.876130801355838,4.592564521870017,-4.9395910761237145
1615031819875970800,8.680970703125,3.1382223301425576,0.6204086111038923,-3.2530764975517985
1615031819886033000,8.691032958984374,1.3751039659701287,-2.4816858823418615,-1.719001282287389
1615031819896095000,8.701094970703124,0.4802534136995673,-4.6979064723074435,-1.329931968204677
1615031819906157000,8.711156982421874,-0.37058921614885326,-6.348506272411346,-1.0951923612207173
1615031819916220000,8.721219970703125,-0.7560814023971557,-6.250422330278158,0.9026477820180356
1615031819926282000,8.731281982421875,-2.1275639629997314,-2.9123464130938053,5.5358063262134785
1615031819936343800,8.74134375,-3.2663191332235932,3.1984009045124053,9.162624366465211
1615031819946406000,8.751406005859375,-3.6650598003625867,8.404595337131619,10.86302484704852
1615031819956468000,8.761468017578125,-4.053820633018017,10.360659847044944,10.931368315434455
1615031819966529800,8.77152978515625,-1.8156642517067492,10.741492224788665,9.411102868205308
1615031819976593000,8.781593017578125,5.7420998831748955,8.539626907911897,4.525020387168229
1615031819986655000,8.791655029296875,0.3556999823138118,-0.13738076425492762,1.6650784073114395
1615031819996717000,8.801717041015625,-3.858012814235687,-6.135452135273814,1.49422441252172
1615031820006779000,8.81177880859375,-3.001215952157974,-8.306838727256656,1.1552321116417645
1615031820016841000,8.821841064453125,-2.7538167700871825,-9.09863675520122,0.5584408152297139
1615031820026903800,8.83190380859375,-3.0894609295830127,-8.989094430464506,-0.3769073132544756
1615031820036966000,8.8419658203125,-3.962872534114122,-8.760449340963364,-1.3069456448927521
1615031820047027700,8.85202783203125,-5.195155736732483,-8.139154010152817,-1.7667478067159652
1615031820057089800,8.86208984375,-6.942241396123171,-6.584012479853629,-1.830104134339094
1615031820067152100,8.872152099609375,-8.471730598771572,-3.7123026130527257,-1.27003162625432
1615031820077214000,8.8822138671875,-9.794337630915642,0.480748211479187,-0.35125995403975246
1615031820087277000,8.892277099609375,-10.82850532233119,5.382727642089129,0.5664233384162187
1615031820097339000,8.9023388671875,-10.104438183832167,9.035112669795751,0.9161322636216879
1615031820107401000,8.91240087890625,-8.60670371736288,10.501181247413157,0.39780572437644
1615031820117462800,8.922462890625,-5.914372512590885,9.704717565745115,-0.3317489056229591
1615031820127524900,8.93252490234375,-2.4599662179648876,6.537917083632945,-1.7459052174344658
1615031820137587000,8.9425869140625,0.7613070280909537,2.7558985447973012,-3.2783030010059475
1615031820147650000,8.952650146484375,2.3988754971861836,0.2788163568586111,-3.449936455735564
1615031820157712000,8.9627119140625,2.5869828245937825,-0.37746494713723655,-2.5807158731535074
1615031820167774000,8.97277392578125,2.5989818899452684,-1.0644009171158075,-1.9703630843788384
1615031820177836000,8.9828359375,2.8092952039420602,-2.1846330270469188,-1.5858473419472574
1615031820187897900,8.99289794921875,2.766331676006317,-3.2921184681296345,-1.3205515609189866
1615031820197960000,9.0029599609375,2.163628817462921,-3.9861885277718305,-1.0463967661306262
1615031820208022800,9.013022705078125,1.0928529584877191,-3.9395220536649225,-0.6928036929681897
1615031820218084900,9.0230849609375,0.23885084169507026,-2.6914363017588854,-0.20118834277689457
1615031820228147000,9.03314697265625,-0.4550151467423886,-1.0173895750939845,0.2315574698165059
1615031820238209000,9.043208984375,-0.7113071717776358,0.37566812684834,0.48679947434216736
1615031820248271000,9.05327099609375,-0.5657803643375635,0.942473158058524,0.3277919846907258
1615031820258334000,9.063333984375,-0.2603657772801816,0.9215098650068044,0.0002364391043782234
1615031820268395800,9.073395751953125,0.6548749443292617,0.7580038948923349,-0.024259996509552
1615031820278457900,9.083457763671875,1.916491939590126,0.1544698462218046,0.2359226792886853
1615031820288520000,9.09352001953125,3.026820933535695,-0.620019319525361,0.5032523042321205
1615031820298581800,9.103581787109375,3.733329911251366,-1.3512170405566692,0.6064768241241574
1615031820308643800,9.113643798828125,3.923946883392334,-1.984770964437723,0.5914651329532266
1615031820318707000,9.12370703125,3.7179645843371745,-2.3320845189392565,0.5817077090486884
1615031820328769000,9.13376904296875,3.261425223702192,-2.1527976268470286,0.5965133562535048
1615031820338830800,9.143830810546875,2.6657772521063685,-1.6932395029127596,0.6110360948637128
1615031820348893000,9.153892822265625,1.9383207634299993,-0.8308890983611344,0.6923381212830543
1615031820358955000,9.163955078125,1.2042580083563923,0.29262276389300823,0.7354089089855551
1615031820369016800,9.174016845703125,0.7321835171982646,1.2378016737788915,0.6023916006371378
1615031820379080000,9.184079833984375,0.7386661572158336,1.6537234850823879,0.0672901599407196
1615031820389142000,9.19414208984375,1.0513301308795808,1.9522429057985542,-0.5552133776158094
1615031820399204000,9.2042041015625,1.206483283190429,2.3359920477718115,-1.1526283588841557
1615031820409266000,9.214265869140625,1.2000728316262363,2.495072018137574,-1.9922692112386224
1615031820419328000,9.224327880859375,1.3993503723457454,2.673818227481842,-2.933269666396081
1615031820429390800,9.234390869140626,1.9842747053533791,3.247301421281695,-3.79400006853044
1615031820439453000,9.244452880859376,2.6922973025023937,4.19467930251658,-4.52417867564708
1615031820449514800,9.2545146484375,3.0436925733596083,5.202188704109192,-5.013793791931867
1615031820459576800,9.264576904296876,3.072696549525857,5.782531846806407,-5.292936896526813
1615031820469639000,9.274638916015626,3.33511589833498,5.672203340128064,-5.507097533601522
1615031820479700700,9.28470068359375,4.008949225634336,4.971282099416852,-5.219135162734985
1615031820489763000,9.29476318359375,5.287320810210704,4.043367628064751,-3.8744478162080047
1615031820499826000,9.304825927734376,6.3063569834679365,2.379740588605404,-2.652873639130592
1615031820509888000,9.314887939453126,6.232983704221248,1.2521972788780926,-1.834818887901306
1615031820519949800,9.32494970703125,5.200653165104985,2.2455320246458053,-0.8707520299330354
1615031820530012000,9.335011962890626,3.6971781091570852,4.156565552699566,0.24045360071659086
1615031820540074000,9.345073974609376,2.5424104001566765,4.913927642557025,0.7536500835970044
1615031820550136800,9.35513671875,3.202067610326409,4.390904469928145,0.6399994467586279
1615031820560199000,9.365198974609376,6.993214042991399,3.113243079447746,0.10479366890490055
1615031820570261000,9.375260986328126,6.700103787842393,1.8793185393631457,-0.8529048230752349
1615031820580323000,9.385322998046876,1.1332996812969445,2.0654133579045535,-2.4752701700806616
1615031820590385000,9.395385009765626,-1.7364222265571354,3.3682676418304442,-3.716171563440561
1615031820600447000,9.405447021484376,-2.450134559780359,4.721185641086101,-3.5471868696540594
1615031820610509800,9.415509765625,-1.31908119610548,4.751781854879856,-2.8794027593910694
1615031820620572000,9.425572021484374,0.36405776855349536,4.492914645594358,-1.4861819758415222
1615031820630633700,9.4356337890625,1.0071896681189536,4.764769346746802,0.9949100322604179
1615031820640695800,9.44569580078125,0.9550736964344978,5.167666256782412,3.916245807495713
1615031820650758100,9.455758056640626,-0.9639712886393069,6.08896452486515,7.276356446355581
1615031820660820000,9.465820068359376,-5.607451758754253,7.70935681823194,11.014137784057855
1615031820670882800,9.4758828125,-9.767656544739008,7.368407538065314,13.89793030284047
1615031820680945000,9.48594482421875,-10.398127700173854,2.434871524196863,11.810105791163444
1615031820691007000,9.496007080078124,-9.05661956820488,-2.8678391628473996,7.682023405626416
1615031820701068800,9.50606884765625,-8.720393224906921,-3.8809360091835257,4.303979635190964
1615031820711131000,9.516130859375,-8.068236307364701,-4.08675142723918,2.0570733995825052
1615031820721194000,9.526194091796874,-4.754596327778697,-4.119173102894425,1.229170477425307
1615031820731256000,9.536256103515624,1.3499252471804617,-3.001001432624459,0.04305997404754162
1615031820741318000,9.54631787109375,9.655581486654281,-0.26129531321525573,-2.5688787203654644
1615031820751380000,9.5563798828125,7.269900986605882,0.19816051938831805,-3.68398369654119
1615031820761442000,9.566442138671874,1.6393270032003522,0.3842074071347713,-3.4863849026888607
1615031820771503900,9.57650390625,-3.5353403645157813,1.7463877402544021,-3.8784213960140943
1615031820781567000,9.58656689453125,-6.859955911624431,1.908408440247178,-4.292024701242148
1615031820791628800,9.59662890625,-8.569369719746708,1.0990355926454067,-4.129629030457139
1615031820801691000,9.60669091796875,-9.076860976722836,-0.15122107355892658,-3.254157863047719
1615031820811753000,9.6167529296875,-7.740712325960398,-2.13576758159101,-1.7803743271388113
1615031820821815000,9.62681494140625,-6.9053826148033135,-3.657812313452363,-0.40053573386222124
1615031820831877000,9.636877197265624,-6.261230140018463,-4.721749704709649,0.9473314117446541
1615031820841936000,9.646935791015625,-5.4876306165874,-5.554452574494481,2.2848512047298253
1615031820851998000,9.656998046875,-4.767378360201418,-6.183156135734915,3.1695857289165255
1615031820862059800,9.667059814453125,-4.263065441000461,-6.80572397069931,3.602708850389719
1615031820872121900,9.677121826171875,-3.9951533399939536,-7.269379008558392,3.6390675732329485
1615031820882183700,9.68718359375,-3.6286817882969973,-7.365178639146685,3.291102861346304
1615031820892245800,9.697245849609375,-3.32352512152344,-7.051548743060231,2.5888363435059785
1615031820902308600,9.70730859375,-3.156324973066151,-6.47339931101501,1.5330112392947077
1615031820912370700,9.71737060546875,-3.0524986878886815,-5.7880526560544965,0.6181421274766326
1615031820922433000,9.72743310546875,-2.667924785529077,-5.2819221660375595,0.2683504924237728
1615031820932494800,9.737494873046876,-2.1690660400807857,-5.035097861245275,0.1843470980912447
1615031820942557000,9.747556884765626,-1.3623659188196062,-5.122421339911222,0.4321642133131623
1615031820952619800,9.757619873046876,-0.7427157248675823,-5.149246802994608,0.6625593613520264
1615031820962681900,9.767681884765626,-0.12913637526184318,-4.585470179694891,0.6391980672478675
1615031820972743700,9.77774365234375,0.6239259715750813,-3.0448844134926794,0.40065965250283475
1615031820982805800,9.7878056640625,3.1453543739795684,-0.648261079147458,0.08243117657974362
1615031820992867600,9.79786767578125,9.344572586721181,3.5506776343792676,-0.5336456889301538
1615031821002929700,9.8079296875,16.997729378825426,11.803189728164671,-1.9208156480081378
1615031821012992800,9.81799267578125,15.739543673187493,18.76223846670389,-1.9852888508319853
1615031821023054800,9.828054931640626,9.973813908100128,18.037840488815306,-2.212920379376411
1615031821033117000,9.838116943359376,7.123069087916612,11.804012734985351,-3.5693086850911375
1615031821043178800,9.8481787109375,4.281960987867414,6.5994269066065545,-3.2080162895977495
1615031821053240800,9.85824072265625,2.8881635734736917,2.952692452007532,-1.5480160623334347
1615031821063303700,9.8683037109375,1.9899786160834132,-0.1471761820822954,-0.22367022369801998
1615031821073365800,9.87836572265625,0.6783969819530844,-3.050357291945815,0.7188517419382929
1615031821083427800,9.888427734375,0.5227295965097845,-5.348564091202617,1.870763476985693
1615031821093490000,9.898489990234374,0.6660872432172298,-5.241070515689254,4.231995179954171
1615031821103551700,9.9085517578125,-1.6324477650806306,-1.8168226279616355,7.940377989214658
1615031821113613800,9.91861376953125,-3.543770046947896,3.0208126330316065,9.938007266181707
1615031821123676700,9.9286767578125,-4.29722577701658,5.815027756741642,10.027868154370784
1615031821133738800,9.93873876953125,-3.891340791080892,6.982346027496456,9.548095509925485
1615031821143800800,9.94880078125,-2.8664778113663196,6.648077832528949,8.619823311176896
1615031821153862700,9.958862548828124,1.615590299912542,3.7984833514243364,5.9257379562139505
1615031821163924700,9.9689248046875,-1.5258395940996705,-1.195215162461996,2.122921251760423
1615031821173986800,9.97898681640625,-4.884762630610168,-4.392300892722607,0.5245213022321462
1615031821184050000,9.9890498046875,-4.538486017940938,-6.0028884159117935,-0.26566081494837995
1615031821194111700,9.99911181640625,-4.189094488121569,-6.605006752565503,-1.064584749250114
1615031821204173800,10.009173828125,-4.156583088356256,-6.372253058701753,-1.6434703866153955
1615031821214236000,10.01923583984375,-4.872191902850568,-5.695471987512708,-2.166653718242049
1615031821224297700,10.029297607421874,-6.095154611676931,-4.607025593420863,-2.546859780780971
1615031821234359800,10.03935986328125,-7.708818473571538,-2.9134873998224733,-2.8190272011443973
1615031821244423000,10.0494228515625,-9.168970520621537,-0.5773895535886288,-2.997098287706077
1615031821254485000,10.059485107421875,-10.281731856280565,2.3445897802472113,-2.968864126868546
1615031821264546800,10.069546875,-10.725472817879915,5.340137039119005,-2.715433847939968
1615031821274609000,10.07960888671875,-9.535213231998682,7.384282568067312,-2.6240701539725064
1615031821284670700,10.089670654296874,-7.218818449622392,7.833865825954079,-2.762519131980836
1615031821294733800,10.09973388671875,-4.298533060222864,6.257734699118137,-2.9383301646560427
1615031821304795600,10.109795654296875,-1.33383818186298,3.446924414438009,-3.114692401473224
1615031821314857700,10.119857666015625,0.8217487834416329,1.3020195866674185,-2.7688609022229906
1615031821324919800,10.129919921875,1.983301476407051,-0.46229777803122996,-2.3987457333266735
1615031821334981600,10.139981689453125,2.1641747609078883,-1.8196072902441023,-2.347708789050579
1615031821345044000,10.1500439453125,2.099554696959257,-2.336104860496521,-1.8357067766517399
1615031821355106800,10.16010693359375,1.8749638512849807,-2.421907413205504,-1.157827388831973
1615031821365169000,10.1701689453125,1.360622582283616,-2.3062176717549563,-0.64410775886029
1615031821375230700,10.180230712890625,0.6761918731242418,-2.146127647563815,-0.18631459877192974
1615031821385292800,10.190292724609375,-0.02899109841836616,-1.0530956792473793,0.5445484834775328
1615031821395354600,10.200354736328125,-0.3256500042259693,0.43439621014893054,1.3466624459922314
1615031821405416700,10.210416748046875,-0.49645497224219143,1.1988117256492377,1.6660636189565061
1615031821415479800,10.220479736328125,-0.49222237617373465,1.4834633645325899,1.1918722817748784
1615031821425542000,10.2305419921875,0.17324352027475834,1.4580851776480674,0.33628713357448575
1615031821435604000,10.24060400390625,1.5041840810000895,1.2829045518308877,-0.1445519710585475
1615031821445665800,10.250665771484375,3.1225767249822614,0.5166524685531855,-0.541700400570035
1615031821455727900,10.260727783203125,5.010127086117864,-0.6574567775160074,-0.7851949764177203
1615031821465789700,10.270789794921875,6.206150642353296,-1.5649346100389956,-0.8591095229342579
1615031821475852800,10.280852783203125,6.008375907412171,-2.0278198325693606,-0.8971487462103366
1615031821485914600,10.29091455078125,4.570137878267467,-2.103383899858594,-1.081129056815803
1615031821495976700,10.300976806640625,3.005733137321472,-1.595019951701164,-1.2792606423705815
1615031821506038800,10.311038818359375,2.055215789017081,-0.9848907425493001,-1.3577321215391158
1615031821516100900,10.321100830078125,1.5899330038256942,-0.45973289597928524,-1.3626225239291787
1615031821526163700,10.331163818359375,1.3083493742108345,0.1346112995415926,-1.3771762421995402
1615031821536225800,10.341225830078125,1.0139667610384524,0.820240863096714,-1.3966183170333504
1615031821546287900,10.351287841796875,0.8662452200330794,1.6615812128454446,-1.346315824511647
1615031821556349700,10.361349609375,0.7928831928327679,2.155273077049851,-1.400910461269319
1615031821566411800,10.371411865234375,0.8024956553086638,2.392866027638316,-1.4679793796747922
1615031821576473600,10.3814736328125,0.8323265838183462,2.5706933685719964,-1.5648460549727081
1615031821586537000,10.391536865234375,0.9351889923997223,2.7300416344851253,-1.7190686484351754
1615031821596598800,10.401598876953125,1.1393753479488193,2.96498611639142,-1.8970105556592345
1615031821606660900,10.411660888671875,1.3253712361603975,3.3828286666244267,-2.124174174430966
1615031821616723000,10.421722900390625,1.4583908825963734,3.7880858760505913,-2.4305960388347505
1615031821626784800,10.43178466796875,1.4765492012299597,3.9847850907146927,-2.736588864171505
1615031821636846800,10.441846923828125,1.6258593266010284,3.7445126917839047,-3.037574090479314
1615031821646909700,10.45190966796875,2.0572475871056315,3.015496406444907,-3.1741146045178175
1615031821656971800,10.4619716796875,2.7141888163149357,2.1620406714886427,-2.74799347076118
1615031821667033900,10.472033935546875,3.3566952774584293,1.4778186366438866,-1.9305770174354313
1615031821677096000,10.482095947265625,3.55966232034564,0.8950076425284147,-1.1962760696917771
1615031821687157800,10.49215771484375,3.192390850442648,0.991401731878519,-0.6813283592298627
1615031821697219800,10.5022197265625,2.6368396191745993,2.3018676598519083,-0.075680094884336
1615031821707282700,10.51228271484375,2.245227050349861,3.770163265869021,0.45240562183111904
1615031821717344800,10.5223447265625,2.370250875726342,4.197333031895757,0.1170610298037529
1615031821727406800,10.53240673828125,4.18902697584331,4.44186601088047,-0.9117319828361272
1615031821737468700,10.54246875,9.459671376541257,4.882061262696981,-1.9063260810151694
1615031821747530800,10.55253076171875,13.936913236707449,4.257452861815691,-2.7028751028791067
1615031821757592600,10.562592529296875,6.965627532407641,3.061988693028688,-3.087679306863248
1615031821767656000,10.572656005859375,-0.04187690174281597,1.8835750277638434,-3.526824465104937
1615031821777717800,10.5827177734375,-4.0181051765143865,0.23265607870817184,-3.3594942605271934
1615031821787779800,10.59277978515625,-5.5535705309629435,-0.26287469136118885,-2.569360366402566
1615031821797841700,10.602841552734375,-4.076756102925539,0.7755202623605728,-1.6845272041469812
1615031821807903700,10.61290380859375,-1.1831250578261912,2.740277197295427,-0.5759814403563738
1615031821817965800,10.6229658203125,1.118273523209244,4.404785111242533,0.8229127126544713
1615031821828028700,10.633028564453125,1.730971559935808,5.843685695949197,2.9048204015031454
1615031821838091000,10.643091064453126,-0.8719380248472094,7.346178170600533,5.339775804591179
1615031821848152600,10.653152587890625,-5.824897408849001,8.714989320036768,8.382745908895135
1615031821858214700,10.663214599609375,-9.313179085069894,7.78843386207819,9.92129110918045
1615031821868276500,10.6732763671875,-9.86937036780715,3.8109471116781233,8.278885136926174
1615031821878339800,10.68333984375,-9.069510613960027,-0.0954278746664524,4.986258134752512
1615031821888401700,10.693401611328126,-7.511029125583171,-1.6716262215197086,2.7496833235442635
1615031821898463700,10.703463623046876,-3.712199152678251,-2.160293535560369,1.1272894810967147
1615031821908525800,10.71352587890625,3.299425284011662,-1.3009674472659825,-0.6393327995434404
1615031821918587600,10.723587646484376,7.675352257299423,-0.025412089154124257,-2.4208396378435193
1615031821928649700,10.733649658203126,3.149202281579375,-0.4674322183102369,-2.8192800068616863
1615031821938712600,10.743712646484376,-2.3444854430899023,-0.4870961192011833,-2.8810823830410834
1615031821948774700,10.753774658203126,-6.199012461036443,0.011298808127641677,-3.314921251568198
1615031821958836500,10.76383642578125,-7.086549329292774,-0.3545551961928606,-3.517645133349299
1615031821968898800,10.77389892578125,-6.789697549527883,-1.3961048145532606,-3.4959821675956246
1615031821978960600,10.783960693359376,-6.809974613881111,-2.348057748618722,-3.39798473470211
1615031821989022700,10.794022705078126,-6.833218711346388,-2.9966888301223515,-3.0300650300234553
1615031821999085600,10.80408544921875,-6.26587942712903,-3.4258009623885153,-1.9656272880285977
1615031822009147600,10.814147705078126,-6.0314347114384175,-3.732059452924132,-0.570312308678776
1615031822019209700,10.824209716796876,-6.210825648427009,-3.9832179875284432,0.8361601706318557
1615031822029271600,10.834271484375,-6.1546156854271885,-4.173801349660754,2.1231883782640097
1615031822039333600,10.844333740234376,-5.716647462010383,-4.316199649816752,3.078199823117256
1615031822049396700,10.854396728515624,-5.138552975022793,-4.5235453461796045,3.461878237941861
1615031822059458800,10.864458740234374,-4.159713203075528,-5.00925673302412,3.12672040065825
1615031822069520600,10.874520751953124,-3.471607604795694,-5.366584901061654,2.4717300132557747
1615031822079582700,10.884582763671874,-3.0268288245812056,-5.16112487231493,2.0080185690343377
1615031822089644500,10.89464453125,-2.451321139216423,-4.775501168641448,1.846504941780865
1615031822099706600,10.90470654296875,-1.9461130247414111,-4.703174183577299,1.853708735679835
1615031822109769500,10.91476953125,-1.4314227961719035,-4.757881925320625,1.9023112924158572
1615031822119831600,10.92483154296875,-0.8805436483681202,-4.64938414120078,2.1252593393191694
1615031822129894000,10.934893798828124,-0.1486066532768309,-4.4970822866678235,2.4749925221830607
1615031822139955700,10.944955810546874,0.28122268734797834,-4.25620432305932,2.6089094097197054
1615031822150017800,10.955017822265624,0.1441125567279756,-3.7046260870754715,2.757095645627379
1615031822160079600,10.96507958984375,0.4367864662863314,-2.436919104376435,2.888620377330482
1615031822170142700,10.975142822265624,3.2111060723066327,0.10782616846859454,2.1607230130188166
1615031822180204500,10.98520458984375,10.34244497591853,5.285058125975728,1.1272959108375011
1615031822190266600,10.9952666015625,15.322098013317584,13.002286115974186,1.0248841686330734
1615031822200328700,11.00532861328125,10.269681353002786,17.364880437219142,0.10999255272224545
1615031822210390500,11.015390625,7.068523843258619,15.554763444375991,-3.570846562182903
1615031822220452900,11.025452880859374,8.51929080684781,11.162455537390708,-6.334253290653228
1615031822230515700,11.035515625,8.583599905151129,6.363596874037385,-6.30038141618967
1615031822240577800,11.045577880859375,3.9526960080146787,1.876841335594654,-5.370262128269672
1615031822250639600,11.0556396484375,-0.5712707784473896,-1.9844880558431148,-3.7795541945487257
1615031822260701700,11.06570166015625,-2.140192704556882,-4.949065591433644,-2.02430057240203
1615031822270763500,11.075763427734374,-2.852795030711591,-7.344880532005429,-1.1990760756738483
1615031822280825600,11.08582568359375,-2.723357626676559,-8.76849411573112,-0.8528205057926476
1615031822290888700,11.095888671875,-1.3916206548765302,-7.693953497394919,0.7815322161264717
1615031822300950800,11.10595068359375,-1.5146179428614674,-4.146411238431931,4.096723955199122
1615031822311012900,11.116012939453125,-2.51271259650737,0.14658523045182228,6.790642136901616
1615031822321074700,11.12607470703125,-3.3053286628365517,4.254979165178537,8.392745324862004
1615031822331136800,11.13613671875,-4.262922817659378,7.180410685294866,9.684612350827456
1615031822341198600,11.146198486328124,-5.477641137492657,9.401292252808808,11.164199750709534
1615031822351261700,11.15626171875,-0.7900653589330613,11.75464869235754,10.180223784917592
1615031822361323500,11.166323486328125,8.128291255354881,8.149924995014072,4.004764925687015
1615031822371385600,11.176385498046875,2.5822400139808654,-0.5962538285344838,0.3627788346588611
1615031822381447700,11.18644775390625,-1.82947752687335,-5.466117872959375,-0.41418373546451326
1615031822391509800,11.196509765625,-2.0077613794028757,-7.314893390020727,-0.6283750599384308
1615031822401572600,11.206572509765625,-1.7969466917552053,-7.805956074765324,-0.9646531334236264
1615031822411634700,11.216634765625,-2.1539992577217517,-7.41282068028748,-1.330911042369902
1615031822421696800,11.22669677734375,-3.111816553775966,-6.850709359851479,-1.4317349308609961
1615031822431758600,11.236758544921875,-5.037248317277431,-5.8154006817072625,-1.6093372308671474
1615031822441820700,11.246820556640625,-7.387109315925836,-3.47957931432724,-1.6575100178837776
1615031822451882500,11.256882568359375,-9.057301120728253,-0.16534662954509258,-1.2635931176394224
1615031822461945900,11.26694580078125,-9.876271233236789,3.4851381174981593,-0.6156695998832583
1615031822472007700,11.277007568359375,-10.059697709351777,6.499270249852538,-0.3431929674401879
1615031822482069800,11.28706982421875,-9.074488402372598,7.812913638818263,-0.6690943160787224
1615031822492131600,11.297131591796875,-6.0526563631653785,6.95082159294188,-1.0445070068612694
1615031822502193700,11.307193603515625,-2.5470763461411,4.338737644839287,-1.8047142570167778
1615031822512255700,11.317255859375,-0.20237302251681685,1.6553209834069014,-2.8317876062572003
1615031822522318600,11.327318603515625,1.4504920921705662,-0.2544423785805702,-3.0000834409967063
1615031822532380700,11.337380615234375,2.3075497971415517,-1.1452034695804119,-2.5994670431137084
1615031822542442500,11.3474423828125,2.6060709714233874,-1.590561218726635,-1.9879531016051768
1615031822552504800,11.3575048828125,2.3345944559335705,-1.8795576088160275,-1.335032798475027
1615031822562566700,11.367566650390625,1.5677216104090212,-2.453711833745241,-1.0268494773566723
1615031822572628700,11.377628662109375,0.8084574863225221,-2.919342555591464,-0.6508288838088512
1615031822582691600,11.387691650390625,-0.08746436670767142,-2.5721874065220356,-0.29867665710449215
1615031822592753700,11.397753662109375,-0.9434341120451688,-1.3100947565734387,0.00016395839005708694
1615031822602815700,11.407815673828125,-1.3143635199338197,0.11892273202240466,0.2659416777163744
1615031822612877600,11.417877685546875,-1.353408997642994,1.1195096408754586,0.16913287008553743
1615031822622939600,11.427939697265625,-0.97301091966331,1.2808908739209175,-0.2750432680606842
1615031822633002800,11.438002685546875,-0.13834639441668986,1.0588210711568593,-0.7143716739147901
1615031822643064800,11.44806494140625,0.9617555122859776,0.9475433009296655,-0.8009744370907544
1615031822653126700,11.458126708984375,2.3265498272962866,0.5134633171230554,-0.7047182949066162
1615031822663188700,11.468188720703125,3.6368525275319814,-0.20671908889710902,-0.65463587487638
1615031822673250600,11.47825048828125,4.60835479619801,-0.8777472956478595,-0.6211760883450508
1615031822683312600,11.488312744140625,5.0988697839319705,-1.3369792563676832,-0.5091860781952738
1615031822693375500,11.49837548828125,4.94248913565278,-1.4879261891603468,-0.2971680061072111
1615031822703437600,11.5084375,4.207560119138658,-1.4086626828312874,-0.07813304099440574
1615031822713500000,11.5185,3.1292627786174414,-1.220980302837491,0.027276713982224463
1615031822723561700,11.528561767578125,2.0786115699127317,-0.6863771670520306,0.13509849853664635
1615031822733623800,11.538623779296875,1.2852040609449147,0.032684710505604744,0.18421207353472707
1615031822743685600,11.548685546875,0.8152507997244596,0.6646066492706537,0.0398038948610425
1615031822753748700,11.558748779296875,0.8134569020450114,0.9477484681129456,-0.30808482917994257
1615031822763810600,11.568810546875,1.092086211898923,1.1044283915996551,-0.657131198823452
1615031822773872600,11.57887255859375,1.3928358758851884,1.5306716904312372,-0.956238940821588
1615031822783934700,11.588934814453125,1.6899290631905197,2.0492560038298366,-1.3366878722056745
1615031822793996500,11.59899658203125,1.9384695242509244,2.5361609843730926,-1.8272849852651356
1615031822804058600,11.60905859375,2.1064415338635443,3.1739784109175204,-2.351534192557633
1615031822814121700,11.619121826171876,2.244421433055401,4.032162927961349,-2.8226217185050246
1615031822824183800,11.629183837890626,2.182899919643998,4.672168219938874,-3.224978822575509
1615031822834245600,11.63924560546875,2.0162515598505735,4.931660867646336,-3.644262219266593
1615031822844308500,11.64930859375,1.9716002249583602,4.674449024352431,-4.12110260965228
1615031822854370300,11.659370361328126,2.3420865652546285,3.689460666647553,-4.524716143524646
1615031822864432600,11.6694326171875,2.8437673823863268,2.874205190747976,-4.349409553240239
1615031822874495500,11.67949560546875,3.1300708801299333,3.5820156064510345,-3.232372439958155
1615031822884557600,11.6895576171875,3.225284235262871,4.1333576955914495,-2.1071929367527362
1615031822894619400,11.699619384765626,3.1603613889753817,4.284433223199844,-1.4117352221444248
1615031822904681500,11.709681396484376,2.649058464756608,4.649859942018986,-1.5051795217782258
1615031822914743300,11.719743408203126,2.137801717767119,4.851234162756801,-2.0566776782631875
1615031822924805400,11.729805419921876,2.3268425266325474,5.184183091819286,-2.4982713987007736
1615031822934868500,11.739868408203124,3.972153572678566,4.858440148612857,-2.6080855261161924
1615031822944930600,11.7499306640625,6.8514429348230355,3.2882501022636887,-2.516374041624367
1615031822954992600,11.75999267578125,6.923555984875559,1.4039040901273487,-2.384615208904445
1615031822965054500,11.770054443359374,3.277404883122444,-0.14815525624752043,-1.7132015099674462
1615031822975116500,11.780116455078126,-0.13373568575084208,-0.9168781135529279,-1.075983802881837
1615031822985178400,11.790178466796876,-1.6531518226742743,-0.6019412265211344,-0.6584130553275347
1615031822995241500,11.800241455078124,-1.7475415864646433,0.8802811980396509,0.492796084408462
1615031823005303300,11.81030322265625,-1.2091842127121983,3.1959616946667433,2.1821254281401634
1615031823015365400,11.820365478515624,-0.6628012072838843,4.720549096748233,3.957195949782431
1615031823025427500,11.830427490234374,-0.8528080847024917,6.07561053777337,5.869384200829267
1615031823035489500,11.840489501953124,-2.9298072509825226,7.70269852938652,8.485241237729788
1615031823045552400,11.850552490234374,-6.193668761920929,7.58555742008388,11.091211671388148
1615031823055614500,11.860614501953124,-8.413424540275335,3.224826554623246,10.239193860280514
1615031823065676500,11.870676513671874,-10.172533814936875,-2.098439429193735,6.406092199939489
1615031823075738400,11.88073828125,-11.014228969472645,-3.6635499803215263,3.23386443208158
1615031823085800400,11.890800537109374,-10.645168862587212,-3.8114439552843566,1.1228370317324996
1615031823095862300,11.9008623046875,-8.244456797623634,-4.142095128798484,0.08031915286183357
1615031823105925600,11.910925537109375,-3.1244156308472153,-3.7613071747183797,-0.47228433451652524
1615031823115987500,11.920987548828125,5.342902996701002,-1.7380834377676249,-1.889614892449975
1615031823126049500,11.931049560546874,9.697419225430489,0.19590601845979688,-4.296413291589915
1615031823136111600,11.941111572265624,5.068161926457286,-0.42516368690133094,-4.783616670557857
1615031823146173400,11.95117333984375,0.23344942104294894,-0.22317864078879354,-4.156378505694866
1615031823156235500,11.961235595703124,-4.763022210818529,0.8175503088384867,-4.004105000473559
1615031823166298400,11.97129833984375,-7.666008090370893,1.4604647662609815,-3.735463123887777
1615031823176360400,11.9813603515625,-7.291853290694951,1.4871458524376153,-3.060435033845901
1615031823186422300,11.99142236328125,-5.833760514262318,0.2975362548977136,-1.6024910182341932
1615031823196484600,12.001484619140625,-5.010186707350611,-1.2422604067534209,0.18477569876685737
1615031823206546400,12.01154638671875,-5.143361252087354,-2.3643764307349917,1.8328752064876257
1615031823216608500,12.0216083984375,-5.58494532791376,-3.4056805499017235,3.2809996927440164
1615031823226671400,12.03167138671875,-5.648751737391948,-4.674871049156785,3.97104531917572
1615031823236733400,12.0417333984375,-5.122877266985178,-5.804978071892261,3.4608144081026313
1615031823246795500,12.05179541015625,-4.491984963528812,-6.111314888361096,2.2965536252222956
1615031823256857300,12.061857421875,-3.944448404151201,-5.850299561131,1.3788821693345903
1615031823266919400,12.07191943359375,-3.2453923727899787,-5.539172587776184,0.9131308898486197
1615031823276981200,12.081981201171875,-2.121707199795544,-5.461227178308367,0.7960178375966847
1615031823287044600,12.092044677734375,-0.8794191743828356,-5.384069704347849,0.7936212978489696
1615031823297106400,12.1021064453125,0.6002937515750527,-5.3678936455726625,0.9381149628490209
1615031823307168500,12.11216845703125,1.553962257386744,-5.387260609343648,1.1230917371459304
1615031823317230300,12.122230224609375,1.969978907366842,-5.039971020239591,1.5959510950714348
1615031823327292400,12.13229248046875,1.9726677080594002,-4.338996588036418,2.321442859546095
1615031823337354500,12.1423544921875,1.5032115827061234,-3.0523388211518525,2.9266619386941195
1615031823347417300,12.152417236328125,1.1300671291165054,-1.280231533229351,3.1766134355962277
1615031823357479700,12.162479736328125,3.0217338395297526,1.2261030526787042,2.4245035671785473
1615031823367541500,12.17254150390625,5.452355305066704,4.640161554825306,0.7568608623370527
1615031823377603600,12.182603515625,6.798390559071302,7.748958760780096,-0.8657327404662967
1615031823387665400,12.19266552734375,6.97363139064312,9.277497530835866,-1.7145969098486005
1615031823397728500,12.202728515625,5.971080488240719,9.928908598446846,-2.8083254821270702
1615031823407790300,12.212790283203125,7.123927166050672,9.713928461682796,-4.244999038434028
1615031823417852400,12.222852294921875,8.000266932988167,6.7461828174501655,-4.828216859784722
1615031823427914500,12.23291455078125,5.267690227067471,2.7565461950510737,-4.135380141329765
1615031823437976300,12.242976318359375,2.6153847432136534,-0.14352467383742332,-2.5386416952729225
1615031823448038700,12.25303857421875,0.9827109142921865,-2.664513223519921,-1.1199690750807523
1615031823458101500,12.2631015625,-0.3393186102248728,-4.7612785820215935,-0.31426760946810245
1615031823468163600,12.27316357421875,-0.9277190949104726,-6.276487914904951,0.4802383622609079
1615031823478225400,12.283225341796875,0.2438366672836244,-5.835877068024874,2.324072623527795
1615031823488287500,12.29328759765625,0.1352722476683557,-2.2623294301897285,5.538084208017588
1615031823498349300,12.303349365234375,-1.7612158915519713,3.016911533939838,8.200219011968374
1615031823508411400,12.313411376953125,-3.050265522009134,7.555826883208751,9.676818335950374
1615031823518474500,12.323474609375,-3.5458933227121827,10.191019904220104,10.62223456172347
1615031823528536600,12.33353662109375,-4.24687886083126,10.926853468358516,10.707697507214545
1615031823538598700,12.3435986328125,-2.2652188680209218,8.329240528678893,7.4994175982445475
1615031823548660500,12.353660400390625,2.632247030687332,2.1360019748687744,2.4276404038995505
1615031823558722600,12.36372265625,-0.3781260413944721,-3.9571091482818126,0.48968818152099847
1615031823568784400,12.373784423828125,-2.8692507832109926,-6.924620399236678,0.2094280555948615
1615031823578847500,12.383847412109375,-2.6497733350276946,-8.151919968223572,-0.2116544994726777
1615031823588909300,12.393909423828125,-2.293866139703989,-8.330539920839668,-0.8651438346624374
1615031823598971400,12.403971435546875,-3.03885916185379,-8.285985908842086,-1.5883800752952695
1615031823609033500,12.414033447265625,-4.150512244009971,-7.858312284946441,-2.1829139481693507
1615031823619095600,12.424095458984375,-5.437906508475542,-6.37867578522563,-2.5117858370512725
1615031823629157600,12.43415771484375,-7.255020228338241,-3.6147213597446677,-2.5259260060846804
1615031823639220500,12.444220458984375,-9.056681527525186,0.10754384439587593,-2.0346791969448326
1615031823649282600,12.454282470703125,-9.734094466876982,4.333731214854121,-1.149647589507699
1615031823659344400,12.464344482421875,-9.535192189210653,7.800508915275334,-0.6267383986473083
1615031823669406500,12.474406494140625,-7.731516627591848,9.251886119717359,-0.7135013208210468
1615031823679468300,12.48446826171875,-4.38265160536766,7.702299300935864,-1.3689748155653476
1615031823689530400,12.4945302734375,-1.0006675728738308,3.984445483496785,-2.4093176884844896
1615031823699593500,12.504593505859376,1.7139315778076647,0.9961544793635606,-2.894839690236747
1615031823709655600,12.514655517578126,3.147078713554144,-0.796478879237175,-2.7304645360723137
1615031823719717400,12.52471728515625,3.451683591663837,-1.3655880957365034,-2.447535190936923
1615031823729779500,12.534779541015626,3.3777164381772278,-1.5422072299242018,-2.145585211250186
1615031823739841500,12.544841552734376,2.95728387145102,-1.8586317251652478,-1.8814342163428663
1615031823749904400,12.554904296875,2.1850924612522125,-2.3358535160839557,-1.6417144828587769
1615031823759966500,12.564966552734376,1.34289754050076,-2.177342285516858,-1.2395523168385028
1615031823770028300,12.5750283203125,0.43245742410607635,-0.7346645203590393,-0.6954802187010646
1615031823780090600,12.585090576171876,-0.42524544690065086,0.8972031067460775,-0.4804518588811159
1615031823790152400,12.59515234375,-1.0832850658059119,1.8539175561249255,-0.6829580062583088
1615031823800214500,12.605214599609376,-1.3043418921351433,2.046476017722487,-0.859680016298592
1615031823810277400,12.61527734375,-0.38119258935824035,1.6050567770689725,-0.8571481597334146
1615031823820339500,12.62533935546875,1.281844813644886,0.8228712116003036,-0.7713333320647477
1615031823830401500,12.635401611328126,2.498528296071291,0.2882119617134333,-0.43333354935348034
1615031823840463400,12.64546337890625,3.2456533618137238,-0.44100481463372704,-0.14039455911815166
1615031823850528500,12.655528564453125,3.548169743211567,-1.2119395027697086,0.08837035737037659
1615031823860590300,12.66559033203125,3.5457425160646436,-1.9364462017297743,0.256417770306766
1615031823870653700,12.67565380859375,3.412906701762974,-2.5283371588796375,0.33243951823562384
1615031823880715500,12.685715576171875,3.213206259456277,-2.881991606840491,0.42513826019912954
1615031823890777600,12.695777587890625,3.0467218580529094,-2.6961931408971544,0.6523515633314848
1615031823900839700,12.705839599609375,2.826810402366519,-1.9737983195245266,0.9665437694758177
1615031823910901500,12.715901611328125,2.401258300669491,-0.8605161748617887,1.3410142109721899
1615031823920963600,12.725963623046875,1.7409078475385904,0.27289105846285816,1.5192314280062913
