time,seconds_elapsed,z,y,x
1615356638071725800,0.015725830078125,0.09757014739215374,0.05341068767011165,-0.2484880002208054
1615356638081659000,0.025658935546875,0.06109598147571087,0.08027005302309989,-0.24445889083519576
1615356638091592000,0.035592041015625,0.06961012732088566,0.11828034246563911,-0.17605448604226112
1615356638101524700,0.045524658203125,0.13496493528485298,0.09555822304785251,-0.05501199452006258
1615356638111457800,0.055457763671875,0.11397241613864897,0.039486791735887525,0.014424246671795845
1615356638121390800,0.065390869140625,0.09919511824548244,0.028045360267162322,0.04373977300524711
1615356638131324000,0.075323974609375,0.1402145263761282,0.03097147684693336,0.04916296709775925
1615356638141256700,0.085256591796875,0.1333475632160902,-0.0014104513198137283,0.07895560029051266
1615356638151189800,0.095189697265625,0.12558218991160391,-0.03253682646751404,0.09692381231263279
1615356638161122800,0.105122802734375,0.14062252265512942,-0.033836803150177,0.0912896058179438
1615356638171055900,0.115055908203125,0.10712532672286033,-0.0019137246668338775,0.06977993092983961
1615356638180988700,0.12498876953125,0.039349429091811175,0.0017868834167718887,0.09020926323533057
1615356638190921700,0.134921630859375,-0.011761749464273451,-0.015354805520176887,0.09895824074968695
1615356638200854800,0.144854736328125,-0.05618249047100544,0.011752981635928153,0.08959565224847756
1615356638210787800,0.154787841796875,-0.09395721759200096,0.07046411380171776,0.052765667764842504
1615356638220720600,0.164720703125,-0.10899871937930583,0.06375087989866733,0.050918140202015634
1615356638230653700,0.17465380859375,-0.048315994879603384,0.025488076999783515,0.050391476846253495
1615356638240586800,0.184586669921875,-0.028532851523160933,0.019713585251569746,0.06460647381469607
1615356638250519800,0.194519775390625,-0.05548807846605777,0.0005184709161520004,0.10912731419503688
1615356638260452900,0.204452880859375,-0.003031330519914627,-0.05726677857637405,0.1253809682510793
1615356638270385700,0.2143857421875,0.05737433060407638,-0.10694587850272655,0.10192249738276005
1615356638280318700,0.224318603515625,0.0012017770051956176,-0.1153004498720169,0.06465148200020193
1615356638290251800,0.234251708984375,-0.06043138008713722,-0.09862404035925865,0.05335369678586721
1615356638300184800,0.244184814453125,-0.053225394231081004,-0.08826865056157111,0.006433247917890549
1615356638310117600,0.25411767578125,-0.060927054649591444,-0.0733773708999157,-0.011742752502858639
1615356638320050700,0.26405078125,-0.0006868132203817367,-0.08412088323235511,-0.027443457984412088
1615356638329983700,0.273983642578125,0.09303542657196522,-0.08258242161870002,-0.05042934290491975
1615356638339916800,0.283916748046875,0.06932020446360111,-0.06452537140250206,0.0018074786802288144
1615356638349849600,0.293849609375,0.03442541669309139,-0.06370528719127178,0.0594017447784543
1615356638359782700,0.30378271484375,0.0700046795964241,-0.06848141555190086,0.07964476073160767
1615356638369716000,0.313716064453125,0.0710761082202196,-0.06210661982297897,0.061903936857730144
1615356638379649000,0.32364892578125,0.03615150983333587,-0.046044542816281314,0.014407295536994933
1615356638389581800,0.333581787109375,0.09567395838201045,-0.05712298619151115,-0.017270283752679822
1615356638399515000,0.343514892578125,0.19813830755650996,-0.06922434287369252,-0.020214383513713255
1615356638409448000,0.353447998046875,0.2882102081477642,-0.09760112705230713,-0.02955430352538824
1615356638419381000,0.363381103515625,0.3619219255685806,-0.09848200154006481,-0.004699555993080139
1615356638429313800,0.373313720703125,0.3840612766623497,-0.08412029871046543,-0.010628069259226321
1615356638439246800,0.383246826171875,0.3778396256685257,-0.06016250001788139,-0.09092793289870023
1615356638449180000,0.393179931640625,0.4162678482621908,-0.04281505937576294,-0.17347250672504305
1615356638459113000,0.403113037109375,0.37264322606921196,-0.02631049929857254,-0.20456702542975544
1615356638469045800,0.413045654296875,0.2896604069560766,0.003872457519173622,-0.1951993314951658
1615356638478978800,0.422978759765625,0.22033435727357864,-0.0007546177595853806,-0.12171311165960505
1615356638488912000,0.432911865234375,0.20206980178654194,0.012543255230784416,-0.05789703930392861
1615356638498845000,0.442844970703125,0.14050094210207462,0.03784136261641979,-0.02340586389824748
1615356638508778000,0.452778076171875,0.01972644473314285,0.06435235292315483,-0.0039295945338904854
1615356638518710800,0.462710693359375,-0.005315057542920112,0.043700610038638114,-0.01707596675697714
1615356638528643800,0.472643798828125,-0.03633972588181496,0.012579495587944984,-0.05182078813016414
1615356638538577000,0.482576904296875,-0.1122597670018673,0.023617606952786443,-0.06105170394256711
1615356638548510000,0.492510009765625,-0.13677344601154326,0.07841653411090374,-0.03150766608286649
1615356638558442800,0.50244287109375,-0.09068506405353545,0.13643325427174569,-0.04997136087119579
1615356638568375800,0.512375732421875,-0.07029343340992927,0.1479740544617176,-0.03235547855123877
1615356638578308900,0.522308837890625,-0.0787491270661354,0.10997662450075149,0.0037739655807614322
1615356638588242000,0.532241943359375,-0.07719312979578971,0.10666238538622856,0.020065029037743806
1615356638598174700,0.5421748046875,-0.055474049940705296,0.1510153218537569,-0.005764262615144252
1615356638608107800,0.552107666015625,-0.010804302608966827,0.15043606066107748,-0.039933804851025344
1615356638618040800,0.562040771484375,0.006615034225583076,0.12471709751486777,-0.056832789339590815
1615356638627974000,0.571973876953125,0.0226566529661417,0.12129472185075282,-0.04861645739721134
1615356638637906700,0.58190673828125,0.07650690109729766,0.12461422166228293,-0.04984568866491317
1615356638647839700,0.59183984375,0.16511106722354887,0.12168167534172535,-0.04641162256300449
1615356638657772800,0.601772705078125,0.24031331546306609,0.13633797720372676,-0.04958513803258538
1615356638667705900,0.611705810546875,0.3188298028171062,0.17674948256909845,-0.08588570094779133
1615356638677638700,0.621638671875,0.31640286793112754,0.21136603792011738,-0.12774053698927162
1615356638687571700,0.63157177734375,0.3269219238579273,0.23287585893869397,-0.15518705458045004
1615356638697504800,0.6415048828125,0.2797217812657356,0.25553017381727694,-0.09286578735979273
1615356638707437800,0.651437744140625,0.2611217102140188,0.250531927138567,-0.08921676333295181
1615356638717370600,0.66137060546875,0.38444998371899125,0.17849778754115103,-0.10972031165212393
1615356638727303700,0.6713037109375,0.4556085095256567,0.13261866441965103,-0.08813844831064344
1615356638737236700,0.68123681640625,0.3826408884704113,0.14003507815599442,-0.07498977453261614
1615356638747169800,0.691169677734375,0.3535124091416597,0.15525544364154337,-0.07719899328099564
1615356638757102800,0.701102783203125,0.38276889876425263,0.12848726370334623,-0.12061755324155092
1615356638767035600,0.71103564453125,0.3622100948601961,0.12325345470309257,-0.16660832004398107
1615356638776968700,0.72096875,0.2962392008244991,0.13208207332491875,-0.25724004647508264
1615356638786901800,0.73090185546875,0.28965339269340035,0.10834814651608467,-0.3840612766623497
1615356638796834800,0.740834716796875,0.28813188221454616,0.08744739730656147,-0.48803822235688565
1615356638806767600,0.750767578125,0.2656453251183033,0.10310440064370631,-0.5724463980980217
1615356638816700700,0.76070068359375,0.19634440987706184,0.13435527895390986,-0.6058344345673918
1615356638826633700,0.7706337890625,0.25922844381332394,0.14718261182308195,-0.6263334711082279
1615356638836566800,0.78056689453125,0.3425029393494129,0.14275135137736797,-0.6109355570986866
1615356638846499600,0.79049951171875,0.35172727929055686,0.0981119991838932,-0.5891933886289596
1615356638856432600,0.8004326171875,0.3827151227504015,0.07665420061349869,-0.5795527229718863
1615356638866365700,0.81036572265625,0.42899756597578526,0.08793839569389819,-0.5854223456576466
1615356638876298800,0.820298828125,0.5272019196182489,0.09980477457642555,-0.6144926650583744
1615356638886231600,0.8302314453125,0.5239052161604165,0.08604454477131367,-0.5927535653285682
1615356638896164600,0.84016455078125,0.4005161523789167,0.07708090159296989,-0.48642260385379193
1615356638906097700,0.85009765625,0.48607028328478336,0.03654781567454338,-0.43146556352451443
1615356638916030700,0.86003076171875,0.6503448996841907,0.026153847432136536,-0.3929254049889743
1615356638925963500,0.869963623046875,0.6225158125162125,0.005872691425681114,-0.4238128568142652
1615356638935896600,0.879896484375,0.5683674582213163,-0.03297112623155117,-0.51419133913666
1615356638945829600,0.88982958984375,0.5055594121307134,-0.04158464079797268,-0.5594099525228142
1615356638955762700,0.8997626953125,0.37300387607514857,-0.07926292180716991,-0.5331729568518698
1615356638965695700,0.90969580078125,0.2640899123698473,-0.10999591372311114,-0.558866785556823
1615356638975628500,0.919628662109375,0.2214332584261894,-0.057227031087875364,-0.6157829971298575
1615356638985561600,0.9295615234375,0.0776426271289587,0.019702479335665702,-0.5947101062238216
1615356638995494700,0.93949462890625,-0.00421849447786808,0.0655558834940195,-0.5628054401800036
1615356639005427700,0.949427734375,0.154461662915349,0.07211947979331017,-0.6249914088495075
1615356639015360500,0.959360595703125,0.2960416324257851,0.06572948649525642,-0.7112652323320507
1615356639025293600,0.96929345703125,0.19035247598588464,0.05860533370375633,-0.7112645016796887
1615356639035226600,0.9792265625,0.18889701648056506,0.016064999616146085,-0.6912856896206736
1615356639045159700,0.98915966796875,0.2976876460671425,-0.08502046242058277,-0.6389443847477436
1615356639055092500,0.999092529296875,0.2053857944667339,-0.1775017622411251,-0.5915018117018044
1615356639065025800,1.00902587890625,0.010887304717302322,-0.19951076495349407,-0.5750615490324795
1615356639074958800,1.018958740234375,-0.09173954154253006,-0.18798340876698494,-0.5328235588923096
1615356639084892000,1.028891845703125,-0.11521627871990203,-0.17728081296682358,-0.4739953762181103
1615356639094824700,1.03882470703125,-0.13145020516216754,-0.1318143622994423,-0.41857875555306673
1615356639104757800,1.0487578125,-0.18899696972370147,-0.03760930742621422,-0.39442558041885495
1615356639114690800,1.05869091796875,-0.16837211484611034,0.06213701496124267,-0.40491657929494973
1615356639124624000,1.068623779296875,-0.12181494633257388,0.16588672777116298,-0.4472828719899058
1615356639134556700,1.078556640625,-0.14490940619409085,0.25695465366244313,-0.48250659945383667
1615356639144489700,1.08848974609375,-0.18279577699601648,0.31182781510055063,-0.4750102523490786
1615356639154422800,1.0984228515625,-0.13383154734075067,0.30942776822149753,-0.4256564023217186
1615356639164355800,1.10835595703125,-0.02300385896861553,0.3128916449397802,-0.3793871473714709
1615356639174288600,1.11828857421875,0.06919979295432567,0.31991818257570265,-0.31390710559263824
1615356639184221700,1.1282216796875,0.029189854127168655,0.3272416573315859,-0.22916936910357324
1615356639194154800,1.13815478515625,-0.044992403414845464,0.37665947597324845,-0.17252744442727416
1615356639204087800,1.148087890625,-0.11635609640479087,0.42529461980462074,-0.16421280320957302
1615356639214020600,1.1580205078125,-0.07380348735749721,0.45381870349943637,-0.18103432028144598
1615356639223953700,1.16795361328125,0.06039221712052822,0.48031391171514987,-0.1930572048999369
1615356639233886700,1.17788671875,0.10776946984529495,0.4964852943152189,-0.2370978605479002
1615356639243819800,1.18781982421875,0.15044190587997436,0.5187555783122778,-0.2787143577888608
1615356639253752800,1.1977529296875,0.2371843697875738,0.5292728806734085,-0.28596257535144687
1615356639263685600,1.207685546875,0.273639246481657,0.5345318241149187,-0.25757841158397493
1615356639273618700,1.21761865234375,0.2709697350114584,0.559434794703126,-0.22445932824909687
1615356639283551700,1.2275517578125,0.2931803977757692,0.5958335572957992,-0.19515863415859638
1615356639293484800,1.23748486328125,0.3351742038965225,0.6052817691206932,-0.14583645791113375
1615356639303417600,1.24741748046875,0.38416239894926546,0.6423866341561079,-0.1409194597750902
1615356639313350700,1.2573505859375,0.43928807384371754,0.6883049202442169,-0.13733999385312198
1615356639323283700,1.26728369140625,0.4572060078501701,0.7136462822496891,-0.13193923078812658
1615356639333216800,1.277216796875,0.4044230966895819,0.7190379121601581,-0.11139693962745367
1615356639343149600,1.287149658203125,0.2923749266117811,0.7335258717179298,-0.03126512603126466
1615356639353082600,1.29708251953125,0.20364099662601948,0.7555179232954978,0.07833104778453708
1615356639363015700,1.307015625,0.27287176924049855,0.7667197007894515,0.13509857160188257
1615356639372948700,1.31694873046875,0.34436990226507186,0.8274106085956097,0.11417685266956687
1615356639382881500,1.326881591796875,0.3704875093400478,0.8877250843048096,-0.021769421802833675
1615356639392814600,1.336814697265625,0.43444647903144357,0.8789432274341583,-0.16305778795555234
1615356639402747600,1.34674755859375,0.4657447036147117,0.8731558762043714,-0.3072499857909977
1615356639412680700,1.3566806640625,0.3445248005658388,0.8780500779867172,-0.3597084873028099
1615356639422613500,1.366613525390625,0.2686287248432636,0.8502651222214103,-0.29567440654858945
1615356639432546600,1.376546630859375,0.2795744817495346,0.8179489527672529,-0.2176796049810946
1615356639442479600,1.386479736328125,0.25292379071116444,0.7969719234511256,-0.1302631873346865
1615356639452412700,1.39641259765625,0.1965799721986055,0.8040241800501943,-0.05348579873293638
1615356639462345700,1.406345703125,0.19972119283378123,0.7940402539134025,-0.005986965455114841
1615356639472278500,1.416278564453125,0.24999767413139343,0.7716326072722673,-0.006235971780121326
1615356639482211600,1.426211669921875,0.2190285353720188,0.7675254642143845,-0.036707097889482974
1615356639492144600,1.43614453125,0.1460223358720541,0.758156747366488,-0.06588876871019601
1615356639502077700,1.44607763671875,0.11424012716412543,0.7185673720389604,-0.07663929530531167
1615356639512010500,1.456010498046875,0.13560732484161853,0.669939826992154,-0.07410159352123737
1615356639521943600,1.465943603515625,0.13905775755643843,0.6485279133901,-0.04619155007153749
1615356639531876900,1.475876953125,0.135513216817379,0.6289698109611869,-0.007814327012747526
1615356639541810000,1.485809814453125,0.084909987783432,0.6354714479401707,0.012186989139020441
1615356639551742700,1.49574267578125,0.1650531995564699,0.637487171676755,0.04682239532098174
1615356639561675800,1.50567578125,0.23807927280068397,0.6473001251608133,0.13570493999719618
1615356639571608800,1.51560888671875,0.14130173709094523,0.649452919280529,0.2470122285798192
1615356639581542000,1.5255419921875,0.04779284778833389,0.653664107234776,0.34041049711480736
1615356639591474700,1.535474609375,-0.0859685569256544,0.6578937076285482,0.4178757218502462
1615356639601407700,1.54540771484375,-0.20470891811847686,0.6174845403507352,0.5035983411908149
1615356639611340300,1.55534033203125,-0.1574590911656618,0.5608046217516064,0.5656016467697919
1615356639621273300,1.5652734375,-0.062008420145511625,0.5322688476189971,0.5615583627283572
1615356639631206400,1.575206298828125,0.026185996136069298,0.4938084763213992,0.5411524112984538
1615356639641139200,1.58513916015625,-0.04116904573440552,0.4562798329159617,0.5287793980680405
1615356639651072300,1.595072265625,-0.09986381128728389,0.4240516340062022,0.44401159523427486
1615356639661005300,1.60500537109375,-0.06360767203569412,0.40537236023843287,0.3692135438814759
1615356639670938400,1.6149384765625,-0.020488661277294158,0.38685003059804435,0.37765652418658135
1615356639680871200,1.62487109375,0.04618248998224735,0.3947819926410913,0.35356530837267636
1615356639690804200,1.63480419921875,0.1441489432156086,0.46748920919448134,0.26179507943093777
1615356639700737300,1.6447373046875,0.10314356361031532,0.585751723742485,0.17991963703781366
1615356639710670600,1.654670654296875,0.010147300004959106,0.6785322987705469,0.21133038208484647
1615356639720603400,1.664603271484375,-0.01821720921397209,0.7100362750589847,0.3015259090557694
1615356639730536400,1.674536376953125,-0.06931903541982173,0.7082189965039491,0.3572340600132942
1615356639740469500,1.684469482421875,-0.06438216353952884,0.7556409651532768,0.3728860949143767
1615356639750402600,1.694402587890625,0.07033785707354545,0.8140309025406837,0.3355354384243488
1615356639760335400,1.70433544921875,0.1296791038364172,0.8151523077860474,0.3156599406093359
1615356639770268400,1.714268310546875,0.11987199557125568,0.7927797324582934,0.293525850212574
1615356639780201500,1.724201416015625,0.13600304616093634,0.7530287368282675,0.26207915706932544
1615356639790134500,1.734134521484375,0.16663550031185148,0.7214771220058203,0.2659925311207771
1615356639800067300,1.7440673828125,0.11334931580424308,0.6558285917922854,0.33066344847381113
1615356639810000400,1.75400048828125,0.1177753155529499,0.5960486613512039,0.39498073008358475
1615356639819933400,1.763933349609375,0.18365970034897328,0.5710308322116733,0.43285394914299247
1615356639829866500,1.773866455078125,0.21333996834158897,0.6053767539277672,0.4622328961014747
1615356639839799300,1.78379931640625,0.1709393349856138,0.6003364216729998,0.43123306994289157
1615356639849732400,1.793732421875,0.15851006152331829,0.6086936233907938,0.4412409614771604
1615356639859665400,1.80366552734375,0.15418986023664474,0.6500730970054864,0.4656207849740982
1615356639869598500,1.813598388671875,0.08964052343666552,0.6924949192799628,0.48155835881829256
1615356639879531300,1.82353125,-0.07282324414849281,0.645928982938081,0.5073863352969289
1615356639889464300,1.83346435546875,-0.09543547345101833,0.4675499994710087,0.5101157602608204
1615356639899397400,1.8433974609375,-0.2913087586849928,0.3370157401099801,0.48178953722566364
1615356639909330400,1.853330322265625,-0.6612614304959774,0.27130437379330397,0.5129471842944622
1615356639919263500,1.863263427734375,-0.7037006422966718,0.15802841548621654,0.5856836269423366
1615356639929196300,1.8731962890625,-0.6089157417088746,0.07685191514268518,0.649523646429181
1615356639939129300,1.88312939453125,-0.6087222649633884,0.03906184432208538,0.6647209233000874
1615356639949062400,1.8930625,-0.4665373152971267,0.007235796472430229,0.6838239754378795
1615356639958995500,1.902995361328125,-0.16359832457304,-0.01613382706865668,0.6097527770549058
1615356639968928300,1.91292822265625,-0.1318301443904638,0.015001023646444081,0.4822524785622954
1615356639978861300,1.922861328125,-0.3768751645505428,0.02921235821992159,0.45718759541064496
1615356639988794400,1.93279443359375,-0.634407910361886,0.039624446640908716,0.518553625999391
1615356639998727400,1.9427275390625,-0.7770821048498153,-0.03488017472326755,0.5836380925893784
1615356640008660200,1.95266015625,-0.8723679406970739,-0.12234218507707119,0.6885518807426094
1615356640018593300,1.96259326171875,-0.9646540102064609,-0.10730565172582864,0.7039525712311268
1615356640028526300,1.9725263671875,-1.0153799888372421,-0.03574468259811401,0.6152879070892929
1615356640038459400,1.98245947265625,-0.9872405205458402,0.01996047268472612,0.4804372458338737
1615356640048392200,1.99239208984375,-0.9012468291789293,0.08184899277761579,0.371261124061048
1615356640058325200,2.0023251953125,-0.7990560362488031,0.11886603339910506,0.3459215156212449
1615356640068258300,2.01225830078125,-0.7705863130897284,0.1277685940399766,0.4288376992389559
1615356640078191400,2.02219140625,-0.7657225064456462,0.11231215477623045,0.5077636441767216
1615356640088124200,2.032124267578125,-0.7331307349205016,0.1548741161737591,0.44478404091149565
1615356640098057200,2.04205712890625,-0.694561642551422,0.24194135505631564,0.3425137530043721
1615356640107990300,2.051990234375,-0.6421265219151974,0.3212713507503271,0.21665946815311907
1615356640117923300,2.06192333984375,-0.5717822351008653,0.3584389788236469,0.08289923248291015
1615356640127856000,2.071856201171875,-0.4516162250190973,0.3666200933221727,0.000614040245115757
1615356640137789200,2.0817890625,-0.2960755346953869,0.36281105642803013,0.016396715788543223
1615356640147722200,2.09172216796875,-0.33274785353243347,0.43000677955094724,0.10970073016881943
1615356640157655300,2.1016552734375,-0.49606093142330643,0.4116686108384281,0.10699527060240506
1615356640167588400,2.11158837890625,-0.5180956530988217,0.42199294791072606,0.051852060051262375
1615356640177521400,2.121521484375,-0.6071323654234408,0.47621619407273824,0.040134734250605104
1615356640187454500,2.131454345703125,-0.7723042229235172,0.48551001905351876,0.0751595781415701
1615356640197387500,2.141387451171875,-0.6369365520566701,0.45944735703617334,0.25017946043908595
1615356640207320600,2.151320556640625,-0.2659714883327484,0.39386341649144885,0.38176381337493653
1615356640217253400,2.16125341796875,0.012272621595859528,0.3356499316494912,0.41600978184789417
1615356640227186400,2.1711865234375,0.09788871182203292,0.31819340460970996,0.45006928783804173
1615356640237119500,2.181119384765625,0.2111900968313217,0.2862232721142471,0.4875537998408079
1615356640247052500,2.191052490234375,0.38207565580308434,0.21756043558083474,0.45119156986624
1615356640256985300,2.2009853515625,0.44762803216576574,0.17848003268875182,0.38644144979715345
1615356640266918400,2.21091845703125,0.3835375450491905,0.15098945676013825,0.4060582966759801
1615356640276851500,2.2208515625,0.3410907344639301,0.1332469523858279,0.42109044611304997
1615356640286784500,2.230784423828125,0.2843663922011852,0.174495566162467,0.3782920456111431
1615356640296717300,2.24071728515625,0.027024785047769544,0.22411979409642516,0.38729689758270974
1615356640306650400,2.250650390625,-0.22484628174006938,0.2800061511650681,0.5010501180127263
1615356640316583400,2.26058349609375,-0.4039163162112236,0.37563875462338325,0.6240545663908124
1615356640326516500,2.2705166015625,-0.4446832108855247,0.42520927960872645,0.7118833642303943
1615356640336449300,2.28044921875,-0.5142424848020076,0.4822765170250088,0.8117173649013042
1615356640346382300,2.29038232421875,-0.577747280985117,0.4572558383412659,0.9382242684423923
1615356640356315400,2.3003154296875,-0.6050175652265548,0.41779849189557133,1.0032283632725476
1615356640366248400,2.31024853515625,-0.7279208913177252,0.4056314495660364,1.0527619172483682
1615356640376181200,2.32018115234375,-0.7011661553829908,0.3915373116314411,1.135443707588315
1615356640386114300,2.3301142578125,-0.6578676964044571,0.30307006975784895,1.2457003180742263
1615356640396047400,2.34004736328125,-0.5507096364557743,0.15942381536737082,1.391025903853774
1615356640405980400,2.34998046875,-0.5817161846160889,0.12139146022349595,1.3969710759937763
1615356640415913200,2.359913330078125,-0.5682645823687315,0.04701236493512988,1.3396025906085967
1615356640425846300,2.36984619140625,-0.3482528811782598,-0.08932824261710047,1.1758949604421853
1615356640435779300,2.379779296875,-0.28465573053658005,-0.05982011632099747,0.8606231423676013
1615356640445712400,2.38971240234375,-0.35684944460988044,0.03336772433370352,0.49517771884799
1615356640455645400,2.3996455078125,-0.44868134061098097,0.0862048498995602,0.25709669248163697
1615356640465578200,2.409578125,-0.4793190554589033,0.049359220322221516,0.10817980421185493
1615356640475511300,2.41951123046875,-0.5505635059833526,-0.001168166996538639,0.10379647456109523
1615356640485444400,2.4294443359375,-0.7748375407934188,-0.04814472996592521,0.22070494415163994
1615356640495377400,2.43937744140625,-0.8003682878911494,-0.2110010040000081,0.31683307604193683
1615356640505310200,2.449310302734375,-0.6265086815446614,-0.3292974208176136,0.2917091561794281
1615356640515243300,2.4592431640625,-0.7356967860162258,-0.27453590306043624,0.07642623707652091
1615356640525176300,2.46917626953125,-0.9189660257428884,-0.16521686568558216,-0.09961012878715991
1615356640535109400,2.479109375,-0.9860884279012679,-0.09090309071838855,-0.07392039173543453
1615356640545042200,2.489042236328125,-1.1266641888052225,-0.06437865640819072,0.0009480945050716399
1615356640554975200,2.498975341796875,-1.350844700112939,-0.000796118813753128,0.031147417935729026
1615356640564908300,2.508908203125,-1.4772574956297873,0.020880875465273854,0.03313713044822216
1615356640574841300,2.51884130859375,-1.5905138724535703,0.05342354715168476,-0.024349428358674048
1615356640584774100,2.528774169921875,-1.7654133432418107,0.13485095351636409,-0.14840776970386504
1615356640594707200,2.538707275390625,-1.8130425249010322,0.13440028713941574,-0.2246001980245113
1615356640604641500,2.5486416015625,-1.85614692261219,0.1628010367155075,-0.2724105814695358
1615356640614574300,2.55857421875,-1.8872563466250896,0.14025398160368202,-0.3795803318560123
1615356640624507400,2.56850732421875,-1.768109742718935,0.10252718527764082,-0.3975006039500236
1615356640634440400,2.5784404296875,-1.5695564246207474,0.09630524202287197,-0.3755249189853668
1615356640644373500,2.58837353515625,-1.4504098207145928,0.0954582698047161,-0.4172667961716652
1615356640654306300,2.598306396484375,-1.3319243110656738,0.11706278336942195,-0.47303427610099313
1615356640664239400,2.6082392578125,-1.2035995444476604,0.11552899793088435,-0.6412719509124756
1615356640674172400,2.61817236328125,-1.0323919139146804,0.09396686220318079,-0.863262843221426
1615356640684105500,2.62810546875,-0.9188760093718766,0.08530190971046686,-0.9817828396618365
1615356640694038300,2.638038330078125,-1.158928043550253,-0.01483750364780426,-1.0132307018488644
1615356640703971300,2.647971435546875,-1.2175181796848773,-0.027698738786578178,-1.0242395871192216
1615356640713904400,2.657904296875,-1.1629010388344525,0.04876724577844142,-1.129175294843316
1615356640723837400,2.66783740234375,-1.4406208326280117,0.10808569618761539,-1.2481278374820948
1615356640733770500,2.6777705078125,-1.7354583499610423,0.14900865820646286,-1.2888231282249092
1615356640743703300,2.687703369140625,-1.4801795205563306,0.1974897805199027,-1.2331965180709958
1615356640753636400,2.69763623046875,-1.3117805177032946,0.1939165982082486,-1.0863804014727472
1615356640763569700,2.707569580078125,-1.2329933967143296,0.1326867612197995,-0.9313643195450305
1615356640773502500,2.71750244140625,-0.9568237549722194,0.11624328368008136,-0.8243032902300357
1615356640783435500,2.727435546875,-0.7835311348587274,0.1526496450573206,-0.8385743921667337
1615356640793368600,2.73736865234375,-0.6407704311311244,0.20570991185456514,-0.8864917431175708
1615356640803301600,2.747301513671875,-0.42271337113976476,0.18848083689510822,-0.932450945737958
1615356640813234700,2.757234619140625,-0.1920487585097551,0.13174275836795568,-0.975847604393959
1615356640823167500,2.76716748046875,-0.1189256546318531,0.00915069018304348,-1.0308867700487374
1615356640833100500,2.7771005859375,-0.11468553284406661,-0.027967618855834004,-0.9751444245606661
1615356640843033600,2.78703369140625,-0.49928340060114856,-0.04439063812941312,-0.8924772472679614
1615356640852966700,2.796966552734375,-0.8068547273010015,-0.16269553051441907,-0.8176414942532777
1615356640862899500,2.8068994140625,-0.782541539299488,-0.19233108258247375,-0.5855582469969988
1615356640872832500,2.81683251953125,-0.5381769026190042,-0.1185375320971012,-0.28175884005129337
1615356640882765600,2.826765625,-0.5294166730582713,-0.059070028606057166,0.04676759639382362
1615356640892698600,2.83669873046875,-0.41931905252635476,0.0466857633292675,0.35453064627349373
1615356640902631400,2.84663134765625,0.48229719448685643,0.25668343550562855,0.1363970139145851
1615356640912564500,2.856564453125,1.2157014856517314,-0.011989420740306376,-0.3132335902452469
1615356640922497500,2.86649755859375,1.7785715155005455,-0.5611345843583345,-0.5451397273689508
1615356640932430600,2.8764306640625,1.739813622561097,-0.7808394115567207,-0.5380939005106687
1615356640942363400,2.88636328125,1.175641862463951,-0.680706720200181,-0.732995710363984
1615356640952296400,2.89629638671875,1.0701239709377288,-0.700936438280344,-0.9009913931131363
1615356640962229500,2.9062294921875,1.131711535322666,-0.7659761889457702,-1.0916723704010247
1615356640972162600,2.91616259765625,1.253739247623086,-0.6840697668924928,-1.3575988505482672
1615356640982095400,2.926095458984375,1.4810001892894507,-0.37676965834945436,-1.2914648749053477
1615356640992028400,2.9360283203125,1.4275234506458043,0.24685353088676928,-1.0437100112646818
1615356641001961500,2.94596142578125,1.6082067655324934,0.7314639707520604,-0.7543664151728153
1615356641011894500,2.95589453125,2.296482459682226,0.8226385718882083,-0.4335106594860553
1615356641021827600,2.96582763671875,1.4447709380447864,0.83574647526443,-0.0036918402552604673
1615356641031760400,2.975760498046875,0.2734548298254609,0.5730573696032166,0.10214169309139251
1615356641041693400,2.985693359375,0.5004167885452508,-0.08445873688459396,0.1353518887758255
1615356641051626500,2.99562646484375,0.494120318749547,-0.303152925735712,0.3160521547973156
1615356641061559600,3.0055595703125,0.04646890570819378,-0.16672171729058027,0.49826516346931454
1615356641071492400,3.015492431640625,-0.5132426601096988,0.08073504018634557,0.4008914154320955
1615356641081425400,3.02542529296875,-0.5769570073902607,0.19157295769155025,0.049428340035676956
1615356641091358500,3.0353583984375,-0.3266767169252038,-0.03166471980810165,-0.01771393586695194
1615356641101291500,3.04529150390625,0.138090666089952,-0.1783273994103074,0.37949031548500056
1615356641111224300,3.055224365234375,1.0782841887786985,0.0850254308566451,1.2831523891121148
1615356641121157400,3.065157470703125,1.0007999670818448,0.48528527038693425,2.183448201176524
1615356641131090400,3.07509033203125,-0.2386176174610853,0.5209381830483675,2.3163678943693635
1615356641141023500,3.0850234375,-0.7095753795489669,0.03446078026741743,1.6890186703473329
1615356641150956300,3.094956298828125,-1.1001882698118686,-0.341366921056807,1.099816513890028
1615356641160889300,3.104889404296875,-1.0395219119250774,-0.5383879150211811,0.7878723789334297
1615356641170822400,3.114822509765625,-0.58852118845582,-0.6490136510804295,0.7211427754849195
1615356641180755500,3.12475537109375,-0.24422639725357292,-0.4429240922585129,0.84488489048779
1615356641190688300,3.134688232421875,-0.07487257789373397,-0.48716801539361476,0.75232468021214
1615356641200621300,3.144621337890625,0.4703729479372501,-0.7434019535660743,0.670848174008727
1615356641210554400,3.154554443359375,0.6904884017631411,-0.2720511005073786,0.6788672298133372
1615356641220487700,3.16448779296875,0.7750280949294567,-0.22183102557212114,0.9160907625675201
1615356641230420500,3.17442041015625,1.0291489864706993,-0.7292544780090451,1.1791998472064733
1615356641240353500,3.184353515625,0.6243875977374613,-0.6960764310285449,1.1854250053316353
1615356641250286600,3.19428662109375,-0.061392334073781966,-0.7447241420805454,1.0069529367536305
1615356641260219600,3.2042197265625,-0.26999986706599594,-0.9044125997334718,0.6574304740309714
1615356641270152400,3.21415234375,0.1248772565126419,-0.9369777755126356,0.30064532682895656
1615356641280085500,3.22408544921875,0.3939215764194727,-0.5480477237701415,-0.024955577558279037
1615356641290018600,3.2340185546875,0.654725306725502,-0.0324555779248476,-0.380891998976469
1615356641299951600,3.24395166015625,0.3981160324346274,0.4671311895370483,-0.9374012616217136
1615356641309884700,3.253884765625,0.24240232363156972,0.533925090393424,-1.1244722317188978
1615356641319817500,3.2638173828125,0.9192214618086815,0.3197282129615545,-0.9112813164591789
1615356641329750500,3.27375048828125,1.4333400279700754,-0.004580605788528919,-1.0956880357831715
1615356641339683600,3.28368359375,1.4962521189570426,-0.09804711725413799,-1.2198942611664534
1615356641349616600,3.29361669921875,1.5305775824069976,0.03881868321597576,-0.7301362292796373
1615356641359549400,3.303549560546875,1.4896856000483034,0.16386398977190256,-0.7275935590595006
1615356641369482500,3.313482421875,0.9178308842331171,0.28117957885861394,-0.5873831243366002
1615356641379415600,3.32341552734375,0.5681476779907941,0.49969431948959825,-0.24833763196468353
1615356641389348600,3.3333486328125,0.6885902399916202,0.9940539999529718,-0.247089093208313
1615356641399281400,3.343281494140625,0.3943370984178036,1.360786832934618,-0.5361158784359693
1615356641409214500,3.35321435546875,0.4974059893567115,1.625250254791975,-0.4293050244897604
1615356641419147500,3.3631474609375,0.16869769353866576,1.4786670701667666,0.053203182399272915
1615356641429080600,3.37308056640625,-0.1799205138206482,1.1991864041805267,1.2618079877883195
1615356641439013400,3.383013427734375,-0.08559621648192405,0.6872925283312797,1.6665625083893536
1615356641448946400,3.392946533203125,0.3393325656849891,0.853999340313673,0.6093249070316553
1615356641458879500,3.40287939453125,-0.28603578671813007,0.8966621317371726,-0.2538040806770325
1615356641468812500,3.4128125,0.08536123868227005,0.12888883024156092,-0.4032920468330383
1615356641478745300,3.422745361328125,1.0006009373784064,-0.29595921483933924,-0.5652829362094401
1615356641488678400,3.432678466796875,-0.14493454063534736,-0.06236994693428278,-0.37129531859159465
1615356641498611500,3.442611572265625,-1.0068540794890373,-0.4942240713849663,-0.131992056953907
1615356641508544500,3.45254443359375,-0.5829658193510026,-1.1708832697600127,-0.09279694164097309
1615356641518477300,3.462477294921875,-1.0665338374912738,-1.1829589074790476,-0.06497077708244324
1615356641528410400,3.472410400390625,-1.7624901492714882,-0.6386296197101473,-0.06862228532731533
1615356641538343400,3.482343505859375,-1.7141338223814964,-0.49017713408172126,-0.2109586261630058
1615356641548276500,3.4922763671875,-1.556646820295602,-0.6242512580066919,-0.32420506611466404
1615356641558209500,3.50220947265625,-1.2731354374885557,-0.7678186019420623,-0.4102320752292871
1615356641568142300,3.512142333984375,-0.7230898178994655,-0.8325485560059547,-0.3368161258846521
1615356641578075400,3.522075439453125,-0.2046632523458451,-1.0373363845795391,-0.06599544395506382
1615356641588008400,3.532008544921875,0.045565307931974525,-1.0273778851449489,0.12856792772412298
1615356641597941500,3.54194140625,0.5271978279650211,-1.1242600502729416,-0.03119944038391113
1615356641607877400,3.55187744140625,1.222595336818695,-1.3050327970087527,-0.3679436700761318
1615356641617810200,3.56181005859375,1.286434479522705,-1.345380004966259,-0.3553893089294433
1615356641627743200,3.5717431640625,1.0674644694048911,-1.2481482957482337,-0.26140754141807554
1615356641637676300,3.58167626953125,0.9285755656093359,-1.1577753663837909,-0.162552030390501
1615356641647609300,3.591609375,0.9512286383789033,-1.3460785086244345,-0.12078092710971831
1615356641657542100,3.601542236328125,1.0217723932880907,-1.8779554343163967,-0.047613984090089795
1615356641667475200,3.61147509765625,1.0831552288811652,-2.63135621932745,0.32047932358980175
1615356641677408300,3.621408203125,1.310058516216278,-2.889358920738101,0.9101929367005824
1615356641687341300,3.63134130859375,1.3734721269845962,-3.1481530647873877,1.527314781218767
1615356641697274000,3.641274169921875,1.336862351989746,-3.418317328634858,1.7747767993927002
1615356641707207200,3.651207275390625,1.2756746005773543,-3.549555936872959,1.810702683776617
1615356641717139200,3.66113916015625,1.0464116714388132,-4.135141071876883,2.176622154548764
1615356641727072300,3.671072265625,0.8470978903621434,-4.889534959578514,2.6663798941746353
1615356641737006000,3.681006103515625,-0.43486550816111263,-2.1646879711270333,3.207507463292777
1615356641746938000,3.690938232421875,-3.1864100224673746,2.671757203298807,3.968493588866293
1615356641756872200,3.7008720703125,-3.592172843328118,6.796569773384928,3.9153286926507946
1615356641766804200,3.71080419921875,-1.2061702717185019,8.19961227824688,2.6368577393531796
1615356641776737300,3.7207373046875,0.8870715888321399,6.650220689776539,0.3598705459967255
1615356641786670000,3.730670166015625,0.9951368267536163,4.107032583245635,-1.4476409405231474
1615356641796603100,3.74060302734375,0.28138766865134235,2.00001412627697,-2.108934227462113
1615356641806536200,3.7505361328125,-0.15701898271534592,0.99134386421144,-2.3738459776088594
1615356641816469200,3.76046923828125,-0.3694452702781185,0.7487205182403326,-2.1005068831175566
1615356641826402300,3.77040234375,-0.46946931362841277,1.2067471948236226,-1.436494400347769
1615356641836335000,3.780335205078125,-0.3933808936715126,1.575807301709056,-0.848775468185544
1615356641846268200,3.79026806640625,-0.24603351974077523,1.5738742878198624,-0.5013514390468597
1615356641856201200,3.800201171875,0.0798690710067749,1.1691121684342622,-0.25343407832086084
1615356641866134300,3.81013427734375,0.2871277101406827,0.5464771134525537,-0.08681932853609323
1615356641876067000,3.820067138671875,0.4197118877688423,-0.008075754427909851,0.044513095465302466
1615356641886000000,3.830000244140625,0.3756032449185848,-0.27377076390683647,0.23444997638761997
1615356641895933200,3.83993310546875,0.3538964400231838,-0.3879600376665592,0.26492490188926454
1615356641905866200,3.8498662109375,0.3529688037842512,-0.44151101059019565,0.24056290630996227
1615356641915799000,3.859799072265625,0.33074586606025697,-0.3821259246855974,0.17504267865121365
1615356641925732000,3.869732177734375,0.15330606313943862,-0.22810616031885145,0.1415641874194145
1615356641935665200,3.8796650390625,-0.13650982663929462,-0.22423837897479532,0.26952479690015313
1615356641945598200,3.88959814453125,-0.3170037199011072,-0.4708651153683662,0.3207286221757531
1615356641955531000,3.899531005859375,-0.4368324608525261,-0.8704834421247243,0.22248276747912168
1615356641965464000,3.909464111328125,-0.4303395917018875,-1.1700520796328782,0.011453998689353465
1615356641975397400,3.9193974609375,0.38501287829875946,-2.832613535687327,0.43992607948631046
1615356641985330400,3.929330322265625,0.06601122604608535,-2.930896215263009,0.17332827594876288
1615356641995263200,3.93926318359375,0.31203181324005125,-1.6703630697160958,-0.4572328958570957
1615356642005196300,3.9491962890625,0.5415033801605925,-1.5879887378901243,-0.8612383516564964
1615356642015129300,3.95912939453125,-0.17449677173886446,-0.05941781913042068,-0.9245309663936495
1615356642025062400,3.9690625,-0.16592530621588228,1.0377829593032597,-0.5667559313714504
1615356642034995200,3.9789951171875,0.21104981157779693,0.3720265554755926,-0.37457887030690906
1615356642044928300,3.98892822265625,0.29873043311834335,0.18495324729084966,-0.1650017616301775
1615356642054861300,3.998861328125,0.38767479098439217,-0.781778738233447,-0.06716916390955448
1615356642064794400,4.00879443359375,0.3958153908094391,-1.086345622420311,-0.34292437963187694
1615356642074727400,4.0187275390625,0.40497309525515884,-1.4861889901041985,-0.4284606826201081
1615356642084660200,4.02866015625,0.5909042842000722,-1.6089672285109757,-0.2848288951463997
1615356642094593300,4.03859326171875,0.6615460926562547,-0.9282365429133176,0.04118848108723759
1615356642104526300,4.0485263671875,0.36774551715552806,-0.24350363593697547,0.7543273983366787
1615356642114459400,4.05845947265625,-0.07408230886545497,0.01083294418156147,1.4951687076345086
1615356642124392200,4.06839208984375,-0.5404746581673622,-0.39734687469303603,1.0044202034056187
1615356642134325200,4.0783251953125,-1.0478782368600368,-0.20781974361538885,0.8970843026719987
1615356642144258300,4.08825830078125,-1.364067169779539,-0.4463672184497118,0.8205097431659698
1615356642154191400,4.09819140625,-1.7107155383706092,-0.9408896882593631,0.4915849550530314
1615356642164124200,4.108124267578125,-2.0536860952317713,-1.5113275230139493,0.22699125787951052
1615356642174057200,4.11805712890625,-1.932006173455715,-1.6167472148627042,0.12874540318287908
1615356642183990300,4.127990234375,-1.2053612203579396,-1.1930313886821269,0.3363892057094723
1615356642193923300,4.13792333984375,-0.24848376243710515,-0.6922913595318794,0.4882506229985505
1615356642203856100,4.147856201171875,0.48065585702061653,-0.24334698407053945,0.46011349279470737
1615356642213789200,4.1577890625,0.9295254136800766,0.2536789929926395,0.39965237515643237
1615356642223722200,4.16772216796875,1.1871113509833813,0.7080307804554701,0.42895168100744485
1615356642233655300,4.1776552734375,1.8215069863855837,0.8567039230972529,0.5047400585718452
1615356642243588000,4.187588134765625,2.344575751721859,0.48114627088606354,0.3587484100989997
1615356642253521200,4.197521240234375,2.505702717745304,0.04889934772551059,0.19481500835269688
1615356642263454200,4.2074541015625,2.5092870059728623,-0.40599662961661814,0.2496903617478907
1615356642273387300,4.21738720703125,1.9399008722282944,-0.3526730357080698,0.4465576629878953
1615356642283320000,4.227320068359375,0.8802806865829974,0.5021025496751069,0.6472117162249982
1615356642293253000,4.237253173828125,0.07768405511789024,0.9294500103563069,0.6460274748764931
1615356642303186200,4.247186279296875,-0.13689499003197997,0.711609807986021,0.4107456142419949
1615356642313119200,4.257119140625,-0.3928828810214996,0.6452683270722627,0.3010739275045693
1615356642323052300,4.26705224609375,-0.9901730668663978,0.9711369424849748,0.33286439258418976
1615356642332985000,4.276985107421875,-1.4309820666670798,1.436211199492216,-0.0019131401449441908
1615356642342918100,4.286918212890625,-1.537639775878191,1.4695552506893872,-0.735470210718736
1615356642352851200,4.296851318359375,-1.377409466433525,1.890304628279805,-1.476161517086625
1615356642362784300,4.3067841796875,-1.207774199783802,2.5490315718621015,-1.9661147792845963
1615356642372717000,4.316717041015625,-1.0864005674779416,2.9238544800579547,-2.2170506110489367
1615356642382650000,4.326650146484375,-0.873112037062645,2.895177836149931,-2.4067706343501807
1615356642392583200,4.336583251953125,-0.5601835672438145,2.534701433214545,-2.3989332187227905
1615356642402516200,4.34651611328125,-0.28608605560064315,2.053847423273325,-2.061046248736232
1615356642412449000,4.356448974609375,-0.01044482621338684,1.4745441450178622,-1.5122360161609947
1615356642422382000,4.366382080078125,0.2637859427209012,1.0602677628338337,-1.0020679411910474
1615356642432315100,4.376315185546875,0.6030086000243201,0.739555215010047,-0.5591982094682753
1615356642442248400,4.38624853515625,0.6013549510657787,0.2152729822307825,-0.21227789206802844
1615356642452181200,4.39618115234375,0.09212715262062847,0.16297756232619284,0.33292364849075673
1615356642462114300,4.4061142578125,-0.2951420532375574,0.3285118233978748,0.893133519219607
1615356642472047400,4.41604736328125,-0.1228992344379425,0.06656593731939792,1.1243005284138023
1615356642481980400,4.42598046875,0.37340142402537163,-0.17204583492279052,1.2877027458928525
1615356642491913200,4.435913330078125,1.1389731238234788,-0.1975485249698162,1.4846066893488168
1615356642501846300,4.44584619140625,1.7440325554303824,-0.5033405670374631,1.4072906638257205
1615356642511779300,4.455779296875,1.8295060223154722,-0.7601444140523672,0.9993120666116475
1615356642521712400,4.46571240234375,1.3723860853135585,-0.5829010104864836,0.5494534989148379
1615356642531645200,4.475645263671875,0.6282638546489179,-0.026864041528105734,0.15999562390595673
1615356642541578200,4.485578125,0.027652561557292937,0.3190349700003862,-0.142446377081424
1615356642551511300,4.49551123046875,-0.22736907821595667,0.6380225937277079,-0.2877181868471205
1615356642561444400,4.5054443359375,-0.2923888820718974,0.7129816808611155,-0.4592391211129725
1615356642571377200,4.515377197265625,-0.240786705128476,0.7191355273157358,-0.5784593747772276
1615356642581310200,4.525310302734375,-0.1664788484454155,0.7302794371426105,-0.6854452930293977
1615356642591243300,4.5352431640625,-0.14340185117535292,0.5146814607411623,-0.9102391139298677
1615356642601176300,4.54517626953125,-0.24550036271214484,0.3482452823936939,-0.9823889888614415
1615356642611105800,4.555105712890625,-0.3337479704856872,0.24144319627583025,-0.943107364308834
1615356642621038600,4.56503857421875,-0.18659151601716875,0.19569559057950972,-0.7145603283546864
1615356642630971600,4.5749716796875,0.2060574101179838,0.38529578689336774,-0.40931817525476216
1615356642640904700,4.58490478515625,0.6050304977733642,0.6430407141506671,-0.2345825167261064
1615356642650837800,4.594837646484375,0.7415005038589239,0.7530120779544115,-0.14728694898039102
1615356642660770600,4.6047705078125,0.9621979222912341,0.8116291020959615,-0.15077289140000938
1615356642670703600,4.61470361328125,1.4163922541700302,-0.11304361085593699,-0.3775792211666703
1615356642680636700,4.62463671875,1.482241713783145,-0.5602426039546727,0.23004238907843827
1615356642690569700,4.63456982421875,1.374274675539136,-1.4117559726715088,0.8335080486878752
1615356642700502500,4.64450244140625,0.7872538817089051,-1.9698130492806434,1.5816669875226914
1615356642710435600,4.654435546875,-0.26387020520456134,-1.7107547013372182,2.1836801102362573
1615356642720368600,4.66436865234375,-1.201892156007886,-1.4151000224024057,2.119785730213672
1615356642730301700,4.6743017578125,-1.9253250882565973,-0.9722171389371156,1.5450022674702106
1615356642740234500,4.684234375,-1.7170798127055167,-0.18249241013526915,0.9265665638744831
1615356642750167800,4.694167724609375,-1.1359048953592776,0.25477497153580186,0.38669747038483615
1615356642760100900,4.704100830078125,-0.7944207776635884,1.041096613895893,0.37238662095963954
1615356642770034000,4.714033935546875,-0.6331827524811029,1.7750275592833757,0.5119695714339614
1615356642779966700,4.723966796875,-0.19130579465534536,1.9030255781650542,0.4551084510490298
1615356642789899800,4.733899658203125,0.2600444363713264,1.409752231633663,0.2751324076488614
1615356642799832800,4.743832763671875,0.6671925741106272,0.9838725054174661,0.17072013927698135
1615356642809766000,4.753765869140625,0.6990642146676779,0.586475361841917,-0.06653788026869296
1615356642819698700,4.76369873046875,0.6074474227219819,0.6095142921239137,-0.03398614849299192
1615356642829631700,4.7736318359375,0.44928168112430716,0.7124930205613375,-0.00841653068959713
1615356642839564800,4.783564697265625,0.26492753223776816,0.9906517902940511,0.09479571424275636
1615356642849497900,4.793497802734375,0.11780804877877235,1.2685112848192452,0.13213234220743178
1615356642859431000,4.803430908203125,-0.013210194706916808,1.6306576667934656,0.11889467497169971
1615356642869363700,4.81336376953125,-0.09202307119164616,1.7396341743409633,-0.07026449957638979
1615356642879296800,4.823296875,-0.03772270467281341,1.4072171601980923,-0.4416322988823056
1615356642889228800,4.833228759765625,0.18764727214779703,0.7838555445075035,-0.7388485280454158
1615356642899163000,4.843162841796875,0.7315040105015039,0.16161796441078186,-0.7815028439015149
1615356642909095000,4.853094970703125,1.3702671934634447,-0.3760071495443582,-0.7990797093853353
1615356642919027700,4.86302783203125,2.483807112279534,-1.8422820633888244,-1.706476877887547
1615356642928960800,4.872960693359375,3.3801474647164342,-1.275061437115073,-1.0363587717190383
1615356642938893800,4.882893798828125,2.9659441477686164,-0.08727905500233173,-0.25169161856770517
1615356642948827000,4.892826904296875,1.8222277018755673,-1.0419541075080632,-1.2086752402767538
1615356642958759700,4.902759765625,1.001672366002202,-0.5908195285260677,-1.50589906822443
1615356642968692700,4.912692626953125,0.6213911924004555,-0.6486158839344978,-2.0350319559052585
1615356642978625800,4.922625732421875,0.031476494626468045,-0.5197171168208122,-2.294621634246409
1615356642988558800,4.932558837890625,-0.4304945265352726,0.271908477166295,-1.3714473431587217
1615356642998491600,4.94249169921875,-0.674574501055479,0.8253016536176204,-0.16001082147508858
1615356643008424700,4.9524248046875,-1.0353379042387008,0.6492541818380355,0.8798945368096232
1615356643018357800,4.962357666015625,-1.4437351652562618,-0.17921616494357584,1.4013923995673656
1615356643028290800,4.972290771484375,-1.6688742924630642,-0.7966320239722728,1.527730668543279
1615356643038223600,4.9822236328125,-1.6102105065703392,-1.1085708982318638,1.5207089532129465
1615356643048156700,4.99215673828125,-1.453654501724243,-1.1299725827008484,1.4842629904776812
1615356643058089700,5.00208984375,-1.2945593337893486,-0.9376526060342788,1.3606179061084984
1615356643068022800,5.012022705078125,-1.1446329762160778,-0.6472960335075855,1.3365994632698595
1615356643077955800,5.021955810546875,-1.0985773274838924,-0.39509295828640456,1.3572875926420092
1615356643087888600,5.031888671875,-1.0741045650064944,-0.19922668731510637,1.2384540002077817
1615356643097821700,5.04182177734375,-1.1009399649620055,-0.13503040173649788,0.96632486602813
1615356643107754800,5.051754638671875,-1.126066222912073,-0.18849194281101225,0.6422972023069858
1615356643117687800,5.061687744140625,-1.0848878248274325,-0.1461491771221161,0.3327380627907812
1615356643127620600,5.07162060546875,-0.990139164596796,-0.09182546626031399,0.059623132444173096
1615356643137553700,5.0815537109375,-0.8108779914677142,0.0588940875172615,-0.05992328443452716
1615356643147486700,5.09148681640625,-0.5479237685969099,0.16640227607786653,-0.1301962595783174
1615356643157419800,5.101419677734375,-0.22346333948168903,0.187056357049942,-0.3009478169068694
1615356643167352600,5.1113525390625,0.1443522837679833,0.25757424686551095,-0.4736329726465046
1615356643177285600,5.12128564453125,0.5503939946353436,0.33473698152303694,-0.5843985555678606
1615356643187218700,5.13121875,0.9854390240818262,0.39049627814590926,-0.6881172887176275
1615356643197151700,5.14115185546875,1.5358476317644119,0.42456981266140936,-0.7478715001955628
1615356643207084500,5.15108447265625,2.1095126118719576,0.4420446790754795,-0.6439838402196765
1615356643217017600,5.161017578125,2.318939790683985,0.4356558548212051,-0.41378202279582615
1615356643226950700,5.17095068359375,2.230218720179796,0.3534557105183601,-0.1653812624670565
1615356643236883700,5.1808837890625,1.9193471828907727,0.24374387443363665,0.053845718086510896
1615356643246816500,5.19081640625,1.381701026147604,0.129966688606143,0.21261165406703947
1615356643256749600,5.20074951171875,0.7870003453392534,0.019352350723743438,0.3320768224030733
1615356643266682600,5.2106826171875,0.21839958981871604,-0.09921616103351115,0.4330518098026514
1615356643276615700,5.22061572265625,-0.19942717832326887,-0.19707564676105974,0.4755009584754705
1615356643286548700,5.230548828125,-0.4199274667482823,-0.20250000989735126,0.4510281959980726
1615356643296481800,5.240481689453125,-0.550694986875914,-0.16600012501776218,0.3579962765574455
1615356643306414800,5.250414794921875,-0.6264345203299075,-0.12346271353960037,0.23065116862654686
1615356643316348000,5.260347900390625,-0.7024299647737294,-0.07121113277673721,0.06191343533843755
1615356643326281000,5.270281005859375,-0.7387614342838525,-0.016443185278773306,-0.08766746979802846
1615356643336213800,5.2802138671875,-0.7136071192830801,0.034248891082406044,-0.19961320241466163
1615356643346146800,5.290146728515625,-0.6303057357400655,0.07162205166518688,-0.28822803606539965
1615356643356079900,5.300079833984375,-0.5105501330900937,0.08716039705872536,-0.3488886948637664
1615356643366013000,5.310012939453125,-0.3529121051609516,0.09170447022914886,-0.4195104834452271
1615356643375945700,5.31994580078125,-0.20440905838906764,0.0929185221940279,-0.4501527283377945
1615356643385878800,5.329878662109375,-0.0549198501240462,0.09964403105676174,-0.45555239542424675
1615356643395811800,5.339811767578125,0.07231704819202422,0.1042810432076454,-0.40799408704414963
1615356643405745000,5.349744873046875,0.17752576417122035,0.07975275115072726,-0.3483909744746983
1615356643415677700,5.359677734375,0.25034550118837506,0.04684066163003445,-0.25152839083001016
1615356643425610800,5.36961083984375,0.27734920691549775,-0.00881692818403244,-0.15842106806561349
1615356643435543800,5.379543701171875,0.26962124301195145,-0.04468377585709095,-0.08802432041168212
1615356643445476900,5.389476806640625,0.25173370414376256,-0.06345511182248592,-0.051828094653785226
1615356643455409700,5.39940966796875,0.21174064338617027,-0.07581132004857064,-0.043403380657732485
1615356643465342700,5.4093427734375,0.18313772230148315,-0.046208793467283245,-0.045798312970250846
1615356643475275800,5.41927587890625,0.14129706091582775,-0.010251344901323317,-0.06450973544195295
1615356643485208800,5.429208740234375,0.08785488212890923,0.03318038506805897,-0.10950944538041948
1615356643495141600,5.4391416015625,0.05840367365181446,0.06946984206736087,-0.16483648806586862
1615356643505074700,5.44907470703125,0.06094119277279823,0.0942734439343214,-0.22442878698036073
1615356643515007700,5.4590078125,0.07495908713340758,0.08133388286232948,-0.2591699916243553
1615356643524940800,5.46894091796875,0.08473408322725444,0.059687868243455885,-0.2897853485099971
1615356643534873600,5.47887353515625,0.10145078821778297,0.04128887272179126,-0.2949211039632559
1615356643544806700,5.488806640625,0.10579261681437492,0.047698155242204665,-0.29485213038027286
1615356643554739700,5.49873974609375,0.12593936931882052,0.07899170365035534,-0.2632299345396459
1615356643564672800,5.5086728515625,0.15864567060172557,0.12585457711219786,-0.21962620900422333
1615356643574605800,5.518605712890625,0.16572006596736608,0.1427887607783079,-0.15228811826854943
1615356643584538600,5.52853857421875,0.17353863076381384,0.09777999075055122,-0.06914879341945052
1615356643594471700,5.5384716796875,0.16295710406005381,0.05608721340298652,0.053021249961107964
1615356643604404700,5.54840478515625,0.13715513880550861,0.03936345761716366,0.1782820989638567
1615356643614338000,5.558338134765625,0.09780855925790966,0.024207974061369895,0.31465865461230275
1615356643624270800,5.568270751953125,0.06372684143595397,-0.025035657057166098,0.4093400948256254
1615356643634204000,5.578203857421875,0.012025368836522101,-0.08367956920564174,0.4779346153631806
1615356643644137000,5.588136962890625,-0.0390653514534235,-0.17415362085700034,0.5175859500110149
1615356643654070000,5.598070068359375,-0.09425532375574111,-0.2501724461764097,0.5141442851245402
1615356643664002800,5.6080029296875,-0.13556644484195857,-0.26436171504855155,0.4879015903651714
1615356643673936000,5.617935791015625,-0.18054591570999473,-0.2357680732488632,0.42992666351944203
1615356643683869000,5.627868896484375,-0.21868775911033153,-0.20329145253598688,0.31859482501745223
1615356643693802000,5.637802001953125,-0.21255787805318832,-0.16766484335958956,0.2024497410148382
1615356643703734800,5.64773486328125,-0.21697043379843234,-0.11043021348714828,0.07672346645742655
1615356643713667800,5.657667724609375,-0.21597495648767798,-0.04972995333075523,-0.05754106547310948
1615356643723601000,5.667600830078125,-0.184991825735569,-0.009257657688856124,-0.15585896249264478
1615356643733534200,5.6775341796875,-0.13256488840579986,0.006871639335155486,-0.24378566774874924
1615356643743466000,5.687466064453125,-0.07021857807543129,0.021864041283726692,-0.34949455180242656
1615356643753400000,5.697400146484375,0.0467768756788224,0.04125906210541725,-0.4668143786728382
1615356643763331800,5.707331787109375,0.17025369080901145,0.0668628744393587,-0.5670974382854997
1615356643773265000,5.717264892578125,0.3068874726215377,0.11485036801695823,-0.6564305032081902
1615356643783198000,5.727197998046875,0.38300804128237065,0.17935586567521095,-0.6893219883322715
1615356643793130800,5.737130859375,0.42916532375812527,0.2132768399775028,-0.6826398802198469
1615356643803063800,5.747063720703125,0.4543278220653534,0.21819909881055355,-0.6407093485936523
1615356643812996900,5.756996826171875,0.44067046811282634,0.2158908218681812,-0.5622111275486648
1615356643822930200,5.76693017578125,0.40957215001583097,0.19009879348576067,-0.4660957090094685
1615356643832863000,5.776863037109375,0.3251760300386697,0.12909692003428935,-0.3683035894297063
1615356643842796000,5.786796142578125,0.21827687675449997,0.06590893471539021,-0.26730317532792686
1615356643852729000,5.79672900390625,0.09464465186689049,-0.007061608949303627,-0.16455620981976388
1615356643862662100,5.806662109375,-0.0387075509916991,-0.035597967603802676,-0.0734739631421864
1615356643872595000,5.816594970703125,-0.14967968933582304,-0.06190729785859585,0.03161006701141596
1615356643882528000,5.826528076171875,-0.2307277409940958,-0.0655342561841011,0.11898761395215987
1615356643892461000,5.8364609375,-0.2892266917139292,-0.05875263321995735,0.18791867296770215
1615356643902394000,5.84639404296875,-0.30461185583975164,-0.06023322716653347,0.21904124872311947
1615356643912327200,5.8563271484375,-0.2812391635587439,-0.07204524551331996,0.23467545570656656
1615356643922260000,5.866260009765625,-0.2504851288547739,-0.09349544529914855,0.24859628290086982
1615356643932193000,5.876193115234375,-0.221480604699254,-0.0984913538902998,0.2776229092903435
1615356643942126000,5.8861259765625,-0.17729944460205732,-0.10441197611093521,0.2781831735216081
1615356643952059100,5.89605908203125,-0.13409980635549873,-0.10222001902461052,0.28337986538186666
1615356643961992000,5.905991943359375,-0.061071395023725925,-0.07904021896719932,0.28323168908283114
1615356643971925000,5.915925048828125,0.007695230677723884,-0.05265022469162941,0.26056436859220267
1615356643981858000,5.925858154296875,0.054580315971374506,-0.05402969635128975,0.23116291754096746
1615356643991791000,5.935791015625,0.10960253049135207,-0.060004094585776324,0.18935469712018965
1615356644001724000,5.945723876953125,0.15263846607618034,-0.04267418960034847,0.1536138139143586
1615356644011657000,5.955656982421875,0.1731137564152479,-0.03470131102502346,0.12501388850435613
1615356644021590000,5.965590087890625,0.15640578272044658,-0.009978373178839683,0.0921186039879918
1615356644031523000,5.975523193359375,0.1315969932217151,-0.0043517654687166216,0.05919423950761556
1615356644041455900,5.985455810546875,0.07276190588269382,-0.0002922609448432922,0.0471191863104701
1615356644051389000,5.995388916015625,0.01442603677008301,-0.0000526069700717926,0.02500555417984724
1615356644061322000,6.005322021484375,-0.04068444055523723,0.005517302116751671,-0.0012068915717303751
1615356644071255000,6.015255126953125,-0.09283018632344901,-0.004210311171412468,-0.03312894714176655
1615356644081187800,6.025187744140625,-0.11527421945221722,-0.006641922232508659,-0.04148571046814322
1615356644091121000,6.035120849609375,-0.08502104694247245,-0.009514262798428534,-0.05657046687528491
1615356644101054000,6.045053955078125,-0.04378302762508392,-0.0021329203754663468,-0.07369651985168457
1615356644110987000,6.054987060546875,-0.0012795914817601442,0.02181611048877239,-0.0983165818452835
1615356644120920000,6.064920166015625,0.050398061850666996,0.021955811220407486,-0.09564707037508487
1615356644130852900,6.074852783203125,0.10785481004118919,0.027124153769016265,-0.0914367592036724
1615356644140786000,6.084785888671875,0.13764080343060195,0.022773557344079015,-0.08899711096659302
1615356644150719000,6.094718994140625,0.17706870458610355,0.0271487036883831,-0.08240823409557342
1615356644160652000,6.104652099609375,0.2085362943869084,0.02401508183777332,-0.08605155903398991
1615356644170584800,6.114584716796875,0.21592413961589335,0.022620412608981132,-0.0916702756986022
1615356644180518000,6.124517822265625,0.23098609966933725,0.020624854877591133,-0.1136741638444364
1615356644190451000,6.134450927734375,0.22989187469184397,0.024923428854346275,-0.10696925937831402
1615356644200384000,6.144384033203125,0.22440672127902506,0.037597616988420485,-0.1031117071673274
1615356644210316800,6.15431689453125,0.19318324243240056,0.04658405652046203,-0.08566431328207254
1615356644220249900,6.164249755859375,0.1553366921842098,0.05318915387392044,-0.07689721558913588
1615356644230183000,6.174182861328125,0.12399923156909644,0.04354746530354023,-0.07135200255215167
1615356644240116000,6.184115966796875,0.07966744748745114,0.027580665364861486,-0.05657485078945756
1615356644250048800,6.194048828125,0.031700412175990636,0.008738017728924751,-0.044059652609378094
1615356644259981800,6.20398193359375,-0.013277962713502347,-0.01712882945537567,-0.0486192156098783
1615356644269915000,6.213914794921875,-0.043488392060063774,-0.02015606832206249,-0.028025924914330244
1615356644279848000,6.223847900390625,-0.06248535347487777,-0.022427520385384557,-0.004527560427039862
1615356644289781000,6.233781005859375,-0.07983107708394527,-0.0038823943912982936,0.014142945512384176
1615356644299714000,6.243714111328125,-0.07630699461102486,-0.001665302863717079,0.031627018146216865
1615356644309647000,6.253647216796875,-0.0578483413239941,-0.022255086427927017,0.07018646590411663
1615356644319580200,6.263580078125,-0.05170037662088871,-0.05581424168050289,0.07421440624594688
1615356644329513000,6.273512939453125,-0.04544953606519848,-0.08170973043739795,0.07227145548462867
1615356644339446000,6.283446044921875,-0.01961476451959461,-0.07817512657046317,0.06576967237517237
1615356644349379000,6.293379150390625,-0.0018938509225845336,-0.03809212250709534,0.0637345132857561
1615356644359312100,6.30331201171875,0.028078678014874455,-0.015022212564945221,0.06636369274556636
1615356644369245000,6.313244873046875,0.06764500126037747,0.0019873744249343872,0.07337386376857757
1615356644379178000,6.323177978515625,0.10379705908298492,0.007471943315863609,0.06662322046458721
1615356644389111000,6.333111083984375,0.12242584477253257,0.004921674311161041,0.06799597012251615
1615356644399044000,6.343044189453125,0.1330464613776654,0.0050993689656257625,0.06285860723406075
1615356644408977200,6.35297705078125,0.1349988740870729,0.010457096606492996,0.04937471015229821
1615356644418910000,6.362909912109375,0.1022550538053736,0.017946575579047202,0.05186784214228391
1615356644428843000,6.372843017578125,0.08041910610496997,0.0027507600128650663,0.04697422488182783
1615356644438775000,6.382775146484375,0.05902209781110286,-0.01672317126393318,0.019831366412341594
1615356644448708000,6.3927080078125,0.02427402503490448,-0.029798341414332387,-0.0016363690301775932
1615356644458641200,6.40264111328125,0.007872340810298918,-0.03312485548853874,-0.0017006664380431174
1615356644468574000,6.412573974609375,-0.003608874679543078,-0.015727730485796926,0.00613514175415039
1615356644478507000,6.422507080078125,-0.005111059403419494,-0.01637888787090778,0.015743512576818466
1615356644488440000,6.432440185546875,-0.010348923524282872,-0.02536415835916996,0.01000906057804823
1615356644498373000,6.442373046875,-0.014613047242164612,-0.03324292891025543,0.0015178572170436381
1615356644508306000,6.452305908203125,-0.029818251691199837,-0.04182604833841324,-0.026242694759368895
1615356644518239000,6.462239013671875,-0.06055825786981731,-0.031980361628532405,-0.057061319132149214
1615356644528172000,6.472172119140625,-0.07335402655694634,-0.008690671455860137,-0.06242357681766152
1615356644538105000,6.48210498046875,-0.07224920712020248,-0.0028910452663898465,-0.0923521204829216
1615356644548038000,6.492037841796875,-0.07010697092711925,0.0033966567009687423,-0.1192585398480296
1615356644557971000,6.501970947265625,-0.04504789646174758,0.0002864157259464264,-0.13542422335967422
1615356644567904000,6.511904052734375,-0.026879239097237585,0.02379997778236866,-0.13983561006113887
1615356644577837000,6.521837158203125,0.01762797461654991,0.029208558827638623,-0.13960413939282298
1615356644587770000,6.53177001953125,0.08429857788681984,0.03318681480884552,-0.13448270472586155
1615356644597703000,6.541702880859375,0.14190788629055023,0.043530514168739314,-0.12240765152871608
1615356644607636000,6.551635986328125,0.17407529492378235,0.0473392588019371,-0.10340849815681576
1615356644617569500,6.561569580078125,0.1702431694149971,0.035870354804396626,-0.08060907571911811
1615356644627502600,6.571502685546875,0.16932609110269695,0.015829437294602393,-0.07265212536528706
1615356644637435600,6.581435546875,0.15489479363560676,-0.008049450942873954,-0.06204129950180649
1615356644647368700,6.59136865234375,0.11220303184594958,-0.01938099229633808,-0.05623889683336019
1615356644657301800,6.6013017578125,0.05939326921105385,-0.025445406901836394,-0.057144028979539865
1615356644667234600,6.611234619140625,0.014546996268630027,-0.026681086176633832,-0.05457315557822585
1615356644677167600,6.621167724609375,-0.002989208411239087,-0.02155073755085468,-0.053327247170358895
1615356644687100700,6.6311005859375,-0.02102463131751865,-0.006050386080145836,-0.04807078794687986
1615356644697033700,6.64103369140625,-0.03758534202873707,0.005031564426422119,-0.03709215168431401
1615356644706966500,6.650966552734375,-0.03371876626107841,0.008761398604512215,-0.02240735438019037
1615356644716899600,6.660899658203125,-0.02982347585558891,0.001253214931488037,-0.01830488749742508
1615356644726832600,6.67083251953125,-0.028934381528757512,-0.013391981014609335,-0.014292144724726676
1615356644736765700,6.680765625,-0.040136780077219006,-0.03478314408957958,-0.01841492374315858
1615356644746698500,6.690698486328125,-0.038002106136083603,-0.036674656924605364,-0.02161459656730294
1615356644756631600,6.700631591796875,-0.025420893515087663,-0.055820086899399754,-0.025829145522415636
1615356644766564600,6.710564697265625,-0.0034767361998558045,-0.04790215338170528,-0.028142098639905452
1615356644776497700,6.72049755859375,-0.0018891382148489356,-0.027137597772479056,-0.023519261144846676
1615356644786430700,6.7304306640625,0.017878771039843557,0.007470774272084236,-0.0268111422970891
1615356644796363500,6.740363525390625,0.04559157488439232,0.028938509714603423,-0.013436989200115204
1615356644806296600,6.750296630859375,0.04769994534049183,0.028092706540226935,-0.005974105973541736
1615356644816229600,6.760229736328125,0.047258010259270664,0.019572130954265594,0.0004594342052936554
1615356644826162700,6.77016259765625,0.04647946363482624,0.01403320152759552,0.019655717584490775
1615356644836095500,6.780095458984375,0.03701367962062359,0.0010632453173398972,0.02748947995007038
1615356644846028500,6.790028564453125,0.026197723106481132,-0.001402268013358116,0.013649024515599012
1615356644855961600,6.799961669921875,0.03544252131376415,0.028229484662413595,-0.010786620821803808
1615356644865894700,6.809894775390625,0.052342181655764576,0.03928104003071785,-0.008963204786926507
1615356644875827500,6.819827392578125,0.08116963221132754,0.039380408751964566,0.007947451873123646
1615356644885760500,6.829760498046875,0.09185648245308548,0.019034370815753935,0.03154737703874707
1615356644895693600,6.839693603515625,0.07720777937564999,-0.013382044142484664,0.0648044806048274
1615356644905626600,6.849626708984375,0.06347264747917651,-0.04659340887069702,0.074323273447901
1615356644915559400,6.859559326171875,0.03606149346232414,-0.0595043283700943,0.08455138360410928
1615356644925492500,6.869492431640625,0.0005546747406944632,-0.061734863901138304,0.09956161347031593
1615356644935425500,6.879425537109375,-0.026799159598350525,-0.055309214767813676,0.08304755491241812
1615356644945358600,6.889358642578125,-0.05106262670662254,-0.03318447672128677,0.04496259279847145
1615356644955291400,6.89929150390625,-0.06758764504995196,-0.009302081352472305,-0.0036196518018841743
1615356644965224400,6.909224365234375,-0.057252750051021574,0.008801730614900588,-0.057357963991165155
1615356644975157500,6.919157470703125,-0.042507016339898104,0.017503507986664772,-0.11789134314805269
1615356644985090600,6.929090576171875,-0.031087212181091308,0.019461656317114828,-0.16417203280776738
1615356644995023600,6.939023681640625,-0.029194530302286147,0.034255320823192596,-0.19557284098267555
1615356645004956400,6.948956298828125,-0.028690708965994415,0.04652911146283149,-0.2107498057179153
1615356645014889500,6.958889404296875,-0.04406999134030193,0.05394727876484394,-0.20584157541021703
1615356645024822500,6.968822509765625,-0.06383212844133376,0.05261924503147602,-0.17876403726190326
1615356645034754600,6.978754638671875,-0.0704009489050135,0.035633038917183876,-0.15884733065366743
1615356645044687600,6.9886875,-0.06854275381769985,0.014502572605013846,-0.12829539439305662
1615356645054620400,6.998620361328125,-0.046594541381858284,0.0028349311649799344,-0.11012830793112516
1615356645064553500,7.008553466796875,-0.012715141198970376,-0.007076221996545791,-0.07070522908121347
1615356645074486500,7.018486572265625,0.03843172972500324,-0.01785831277370453,-0.03981821564733982
1615356645084419600,7.028419677734375,0.08433836190793663,-0.015541268002986906,0.0017490356244146822
1615356645094352400,7.038352294921875,0.1148042273202911,-0.0038940848290920254,0.02199175931662321
1615356645104285400,7.048285400390625,0.14678689050376414,-0.015451251631975173,0.04993205177411437
1615356645114218500,7.058218505859375,0.16709376547336577,-0.014646364989876747,0.0748652713701129
1615356645124151600,7.068151611328125,0.14450842417776583,-0.01831482436954975,0.09375964919328689
1615356645134084400,7.07808447265625,0.1120282963335514,-0.008106149566173552,0.10280074152201414
1615356645144017400,7.088017333984375,0.07105269081201404,-0.015488076511025428,0.07153291207700968
1615356645153950500,7.097950439453125,0.023114333605766296,-0.031132220366597175,0.01915185971558094
1615356645163883500,7.107883544921875,-0.013128361642360687,-0.036632571348547936,-0.040993396906554694
1615356645173816600,7.117816650390625,-0.025472879430651664,-0.020426117435097695,-0.10310060125142335
1615356645183749600,7.12774951171875,-0.03175006000399589,0.004679682248830795,-0.13665975650399922
1615356645193682700,7.1376826171875,-0.037543256452679634,0.04130407029092312,-0.1461634979084134
1615356645203615700,7.14761572265625,-0.031195348730683324,0.04741933830082416,-0.13170491057559847
1615356645213548500,7.157548583984375,-0.041598669323325156,0.0336713834553957,-0.10671849948763847
1615356645223481600,7.167481689453125,-0.05949325898680836,0.017206570866703987,-0.06483765222206711
1615356645233414700,7.17741455078125,-0.07618077441547065,0.00038169279396533964,-0.03093319066315889
1615356645243347700,7.18734765625,-0.05873805670533329,-0.01773790126442909,0.006111176356673241
1615356645253280500,7.197280517578125,-0.05981240793857723,-0.0228700034558773,0.03641659051030874
1615356645263213600,7.207213623046875,-0.037310653273202474,-0.014849194085597992,0.05738572878092527
1615356645273146600,7.217146728515625,-0.0029682021558284756,-0.007189034721255302,0.08686711320057511
1615356645283079700,7.22707958984375,0.022568390160799024,-0.02939092965722084,0.08637509189993142
1615356645293012700,7.2370126953125,0.06003803338799625,-0.030977906587719914,0.09468158634379506
1615356645302945500,7.246945556640625,0.0960246349832043,-0.03226677735447883,0.09605229017511009
1615356645312878600,7.256878662109375,0.10751637186706066,-0.019281039053201676,0.09129135938361287
1615356645322811600,7.266811767578125,0.11030801187958568,-0.02051204215288162,0.08078150967657566
1615356645332744700,7.27674462890625,0.11023264508843421,-0.028625205981731412,0.04990896315947175
1615356645342677500,7.286677490234375,0.1029740522623062,-0.04168751665055752,0.027267800023406744
1615356645352610600,7.296610595703125,0.09143847623672335,-0.0433656789958477,0.02246303009018302
1615356645362543600,7.306543701171875,0.07947798932995646,-0.03293839300572872,0.023286329171806574
1615356645372476700,7.3164765625,0.03704875093400478,-0.03181552645564079,0.013890870447456835
1615356645382409500,7.326409423828125,0.016745967617630957,-0.03205518043041229,0.007557721903175115
1615356645392342500,7.336342529296875,-0.021364275068044662,-0.03246083862185478,0.011961802081018685
1615356645402275600,7.346275634765625,-0.04359777071867138,-0.02796002007126808,0.016556436394900082
1615356645412208600,7.356208740234375,-0.07157006574962288,-0.02671791105568409,0.022956804956495762
1615356645422141400,7.366141357421875,-0.07255432754661888,-0.024225509718060492,0.020886136162281035
1615356645432074500,7.376074462890625,-0.05202361722588539,-0.011616203513741492,0.012166969264298676
1615356645442007600,7.386007568359375,-0.005552409962750971,0.0024468086302280425,-0.025758710634708405
1615356645451940600,7.395940673828125,0.03955810340642929,0.0069669164031744,-0.05158771002665162
1615356645461873400,7.405873291015625,0.10336856800522655,0.016260229927301407,-0.07297258949130773
1615356645471806500,7.415806396484375,0.15296992652025074,0.019335984110832212,-0.08489303664863108
1615356645481739500,7.425739501953125,0.17635138662960378,0.04196165741682052,-0.08601853354722261
1615356645491672600,7.435672607421875,0.18219664205908775,0.054957917112112044,-0.079260875980556
1615356645501605600,7.445605712890625,0.1599555841565132,0.03532382683753967,-0.04746580779105425
1615356645511538400,7.455538330078125,0.12128653854429722,0.00647241088449955,-0.012780132726579903
1615356645521471500,7.465471435546875,0.05461772537231445,-0.01664484533071518,0.02125058556050062
1615356645531404500,7.475404541015625,-0.0041214273115620014,-0.02567512400448322,0.04629954049065709
1615356645541337600,7.485337646484375,-0.06590071487631649,-0.019198621466755866,0.0710787385687232
1615356645551269600,7.49526953125,-0.09855861044023186,-0.0053583121627569195,0.09023951224312186
1615356645561203500,7.505203369140625,-0.09975037750806659,-0.00031739538609981536,0.10075725299566983
1615356645571135500,7.515135498046875,-0.09384557391107082,-0.018661445850133896,0.12164207398369907
1615356645581068500,7.525068603515625,-0.05235211852788925,-0.006167874979972839,0.14518544665649533
1615356645591001600,7.535001708984375,-0.0007499415844678879,0.0024509002834558484,0.14111892786994576
1615356645600934400,7.544934326171875,0.07147245059404522,-0.014011574217677115,0.12593772535100578
1615356645610867000,7.554866943359375,0.11813885163571684,-0.007719196075201034,0.09485591999739408
1615356645620800000,7.564800048828125,0.12218670225441455,0.016827216160297392,0.09385770274028181
1615356645630733000,7.574733154296875,0.09890987156331539,0.022390110984444617,0.1271004855200648
1615356645640666000,7.584666015625,0.035397440063022076,-0.0070411506831645964,0.1877839406721294
1615356645650599000,7.594598876953125,-0.045108723270893096,-0.09194821585714817,0.2336718316219747
1615356645660532000,7.604531982421875,-0.09970306776762008,-0.21659750883281229,0.20990853258818387
1615356645670465000,7.614465087890625,-0.1868786623954773,-0.2584510297000408,0.12736264358758925
1615356645680398000,7.624398193359375,-0.31076745586004106,-0.17394260845482348,0.08029942524805665
1615356645690331000,7.634330810546875,-0.3986474358975887,-0.09002630788385868,0.04736483163461089
1615356645700264000,7.644263916015625,-0.4431704682350158,-0.030246085181832312,0.008460808222740888
1615356645710197000,7.654197021484375,-0.43019875845909117,0.009034370326995849,-0.06802475782558322
1615356645720130000,7.664130126953125,-0.38231004908084865,0.030360066950321195,-0.1410584298543632
1615356645730062800,7.674062744140625,-0.2594066864570603,0.03447393200993538,-0.22374299667328595
1615356645739996000,7.683995849609375,-0.12018533583674579,0.03455284246504307,-0.3158233144775033
1615356645749929000,7.693928955078125,0.035599721169471736,0.05035246914327144,-0.42384822038859127
1615356645759862000,7.703862060546875,0.14597853326294571,0.09572539630830287,-0.46309974206387994
1615356645769794800,7.713794921875,0.24380353219900278,0.13818740446269512,-0.5474757691010832
1615356645779728000,7.723727783203125,0.29681846201717854,0.16306874774098395,-0.5355974075198173
1615356645789661000,7.733660888671875,0.3032826895952225,0.20702596288919448,-0.4974230135567486
1615356645799594000,7.743593994140625,0.26552136994507164,0.20620938580930231,-0.4320709820717573
1615356645809527000,7.753527099609375,0.2198994364550337,0.15725684659183026,-0.34873774208575486
1615356645819459800,7.7634599609375,0.15859660729561,0.10970189921259879,-0.263863848529011
1615356645829393000,7.773392822265625,0.10924067490901797,0.05931845040917396,-0.17038900762647388
1615356645839326000,7.783325927734375,0.07874624098930508,0.012531564792990684,-0.07984189073890448
1615356645849259000,7.793259033203125,0.043758477705717086,-0.02578326055407524,0.011709434755146502
1615356645859191800,7.80319189453125,0.001589936072565615,-0.06748597477376461,0.08026552297845482
1615356645869124900,7.813124755859375,-0.01313709293808788,-0.11694821707904338,0.15587649814933538
1615356645879058000,7.823057861328125,-0.016575287225842474,-0.11181436132192611,0.21773528069108725
1615356645888991000,7.832990966796875,-0.03920563670694828,-0.09673720369935035,0.2728162396609783
1615356645898923800,7.842923828125,-0.06324172480013221,-0.0735994892179966,0.31339827928766606
1615356645908856800,7.85285693359375,-0.0705751364281401,-0.06015139410197735,0.33016192869246
1615356645918790000,7.862789794921875,-0.04246905894968658,-0.036603345254063606,0.3149282653339207
1615356645928723000,7.872722900390625,0.0013631050467491149,0.009797755914926529,0.25793694269806144
1615356645938655700,7.88265576171875,0.04136427604556083,0.0341547830581665,0.1685907260328531
1615356645948588800,7.8925888671875,0.1003378585398197,0.02276595855951309,0.06323430867865681
1615356645958521900,7.90252197265625,0.1489011061787605,0.026802666729688642,-0.025143355215340852
1615356645968455000,7.912454833984375,0.17410857613887637,0.026178981873393056,-0.1091733452938497
1615356645978387700,7.9223876953125,0.1659329415330663,0.026200024661421774,-0.1439525438606739
1615356645988320800,7.93232080078125,0.11470778120849282,0.032764790004491805,-0.15681114865094423
1615356645998253800,7.94225390625,0.011588730984926222,0.03496376135349274,-0.13916867058500645
1615356646008187100,7.952187255859375,-0.10231821870207786,0.028492519512772558,-0.09055062401890754
1615356646018120000,7.962119873046875,-0.1850151883448474,0.030112229669094083,-0.017299071455746887
1615356646028053000,7.972052978515625,-0.25749763796534386,0.01971475429534912,0.07551262936294079
1615356646037986000,7.981986083984375,-0.28440087899267674,-0.014944471153616905,0.16488792599216104
1615356646047917800,7.991917724609375,-0.28817334673609585,-0.07203589316308498,0.24486264933049678
1615356646057851000,8.001850830078125,-0.2595622423449531,-0.11668225961923599,0.294257817748934
1615356646067784000,8.011783935546875,-0.16347495392169803,-0.15250935980379582,0.30780104380249973
1615356646077716700,8.021716796875,-0.03535071484446525,-0.16567454632520676,0.2978989507302642
1615356646087649800,8.03164990234375,0.07365505533013493,-0.14863514871895311,0.2599396608226001
1615356646097583000,8.0415830078125,0.15747140265796333,-0.11229308474957943,0.21651772159487007
1615356646107516200,8.05151611328125,0.21939682069513947,-0.07220248190164566,0.17616130741760133
1615356646117449000,8.061448974609375,0.2765028557518497,-0.04029226289987564,0.10486804931536316
1615356646127382000,8.071382080078125,0.30875618910286573,-0.0063046531021595,0.030970892325043676
1615356646137315000,8.081315185546876,0.27092476335857063,0.0026858780831098554,-0.022440818258374927
1615356646147248000,8.091248046875,0.2188110932290554,0.014727029010653495,-0.10472761793136597
1615356646157181000,8.101180908203125,0.14891104305088518,0.014305588728189468,-0.14557897601872682
1615356646167114000,8.111114013671875,0.08542966427598148,0.025765140375494957,-0.19019757768511772
1615356646177047000,8.121047119140625,0.035423232091404494,0.050987259915471074,-0.2061215613953769
1615356646186980000,8.13097998046875,0.0018459201276302337,0.08505670277774334,-0.21616978494003414
1615356646196913000,8.140912841796874,-0.033239385246299206,0.09502455456256866,-0.21695684366449713
1615356646206846000,8.150845947265625,-0.04319441408216953,0.09680442371666431,-0.21459274488165975
1615356646216779000,8.160779052734375,-0.0345709443773143,0.10452011266052723,-0.18805428204610944
1615356646226712000,8.170712158203125,-0.030396873563062397,0.09130816438794136,-0.14420695701315997
1615356646236644900,8.180644775390626,-0.015574585750699043,0.050230888590216634,-0.08943053394779563
1615356646246578000,8.190577880859376,-0.008524667239189147,-0.006558335602283478,-0.0055956280499696726
1615356646256511000,8.200510986328124,-0.02111468422114849,-0.049609541821479794,0.07965338242948054
1615356646266444000,8.210444091796875,-0.05033312512198463,-0.09381517877280711,0.15556158698126674
1615356646276377000,8.220377197265625,-0.08193827849626541,-0.1218622926056385,0.21193463158831
1615356646286310000,8.230309814453125,-0.12942244392791763,-0.10694997015595435,0.2763571271382272
1615356646296243000,8.240242919921876,-0.1563589661703445,-0.09085399087965487,0.33230127880871296
1615356646306176000,8.250176025390624,-0.15927927406383677,-0.08514262749552726,0.3662092474989593
1615356646316109000,8.260109130859375,-0.16115264845397323,-0.09550093990266323,0.37268048933967945
1615356646326041900,8.270041748046875,-0.14005436737835406,-0.12643968352377413,0.37089462883621455
1615356646335975000,8.279974853515625,-0.11653961801184341,-0.1619166550964117,0.3400862335965037
1615356646345908000,8.289907958984376,-0.08621520689679309,-0.1805646569430828,0.29435660194829105
1615356646355841000,8.299841064453124,-0.058640368484519416,-0.19800386752188204,0.25562793510332704
1615356646365773800,8.30977392578125,-0.03327737916912883,-0.1975485249698162,0.19808833093494177
1615356646375707000,8.319706787109375,-0.02965975492754951,-0.19076982461512088,0.15873378727659582
1615356646385640000,8.329639892578125,-0.01504793152809143,-0.16184066725075244,0.15135609811544418
1615356646395573000,8.339572998046876,0.02190678444691002,-0.12126023505926131,0.1298148590452969
1615356646405505800,8.349505859375,0.0707108185717836,-0.07306056003570556,0.09323299497067927
1615356646415438800,8.35943896484375,0.10779931699428706,-0.045799628144502634,0.05150236983075738
1615356646425372000,8.369371826171875,0.1901678036013618,-0.03239712573587894,-0.008997399317473172
1615356646435305000,8.379304931640625,0.26389121145997196,-0.005762216788530349,-0.07609963547065854
1615356646445237800,8.38923779296875,0.3435568323165178,0.02004968533813953,-0.1394968796260655
1615356646455170800,8.3991708984375,0.4471861701497808,0.024399112719297407,-0.21196941064074634
1615356646465104000,8.409103759765625,0.5120674423178657,0.042809798678755756,-0.2943453499019146
1615356646475037000,8.419036865234375,0.5838911540349945,0.05917524254620075,-0.3625955870464444
1615356646484969000,8.428968994140625,0.6460299590945243,0.05793430257439613,-0.3726946639955044
1615356646494902000,8.438902099609376,0.6443395217895508,0.04934884505867958,-0.3689085695855319
1615356646504834800,8.448834716796876,0.5711539106020703,0.039589083066582674,-0.32756285210996866
1615356646514768000,8.458767822265624,0.4975760486939922,0.01680734241604805,-0.25331790459528564
1615356646524701000,8.468700927734375,0.4285936248173937,0.0019891279906034467,-0.1689525450825691
1615356646534634000,8.478634033203125,0.3637567763129249,0.03083352968096733,-0.10155132598280905
1615356646544566800,8.48856689453125,0.33605219230744987,0.07330605922937393,-0.03813610777929425
1615356646554499800,8.498499755859376,0.3451298172542825,0.10325228468179702,0.0022808044135570523
1615356646564433000,8.508432861328124,0.3945008741447702,0.10453121857643127,0.028106881196051835
1615356646574366000,8.518365966796875,0.49137310240063814,0.0932061069637537,0.016877046651393175
1615356646584298800,8.528298828125,0.5989156681548804,0.07117781502902508,0.021631986093521117
1615356646594231800,8.538231689453125,0.6876800663441419,0.07129998010396957,0.040270343329012394
1615356646604164900,8.548164794921876,0.7225403673231602,0.0688455726891756,0.07157981995865702
1615356646614097700,8.55809765625,0.7039993329823017,0.05046645091176033,0.12159355866685509
1615356646624030500,8.568030517578125,0.635967487828806,0.036684009274840355,0.19798706251755355
1615356646633963500,8.577963623046875,0.5228267732739448,0.008505962538719177,0.27906112539991734
1615356646643896600,8.587896484375,0.3838987795770168,-0.01683773755431175,0.3630436230748892
1615356646653829600,8.59782958984375,0.2361783710828051,-0.06255670167803765,0.4625748414069414
1615356646663762700,8.6077626953125,0.13373334766328335,-0.13652970038354395,0.5156655033424496
1615356646673695500,8.617695556640625,0.04675882856547832,-0.1870043346017599,0.5648518513157963
1615356646683628500,8.627628662109375,-0.0027028292179107666,-0.20975860272347926,0.5994016250409185
1615356646693561600,8.6375615234375,-0.026927717881463465,-0.2068120278775692,0.616622224432975
1615356646703494700,8.64749462890625,-0.04438566969335079,-0.17501403707861898,0.6434698993481696
1615356646713427500,8.657427490234374,-0.04371756117343902,-0.13977145878374575,0.6647982263199984
1615356646723360500,8.667360595703125,-0.03016425211727619,-0.12281038711071014,0.6843021143436432
1615356646733293600,8.67729345703125,-0.024908194752596317,-0.14009996008574963,0.678829674281925
1615356646743226600,8.6872265625,-0.03454871427919715,-0.14668518369495867,0.6663586075045168
1615356646753159400,8.697159423828126,-0.04689619120955467,-0.09897241540551185,0.6691311409577727
1615356646763092500,8.707092529296874,-0.05786708255708217,-0.08791326125264168,0.6518022588856518
1615356646773025500,8.717025634765625,-0.03805643013920635,-0.1317699386358261,0.6171037243396044
1615356646782958600,8.72695849609375,-0.028150574207305906,-0.21711481070518493,0.5657997996903955
1615356646792891400,8.736891357421875,-0.014705401700735091,-0.30752573399245736,0.4928356857664883
1615356646802824400,8.746824462890626,0.0018336451679468154,-0.35478374425172804,0.41073710214197634
1615356646812757500,8.756757568359374,0.017334617693163454,-0.3615513386905193,0.32245427692458034
1615356646822690600,8.766690673828125,0.04960837277770042,-0.35777708084881304,0.21874752647355197
1615356646832623600,8.77662353515625,0.04810848960876465,-0.3132452806830406,0.10676000054180622
1615356646842556700,8.786556640625,0.051221032138727605,-0.22192074968218803,0.005879997949302196
1615356646852489700,8.79648974609375,0.0064209364255890244,-0.1559469330370426,-0.09229381442442536
1615356646862422800,8.8064228515625,-0.05885375550687313,-0.09281155468821525,-0.2311827912852168
1615356646872355600,8.81635546875,-0.1589151717254892,-0.02122223624885082,-0.35911680501997467
1615356646882288600,8.82628857421875,-0.296470671492815,0.06112286948263645,-0.48479661008715624
1615356646892221700,8.8362216796875,-0.4183265343576669,0.16518237889409065,-0.6008202596671879
1615356646902153500,8.846153564453125,-0.5490623807054013,0.28113515519499777,-0.6832926450401544
1615356646912086500,8.85608642578125,-0.6379349154442548,0.3722703011035919,-0.7350520583719015
1615356646922019800,8.866019775390624,-0.7060813999533653,0.42341538192927836,-0.7432134452566505
1615356646931952600,8.87595263671875,-0.7481932794958353,0.4567693699985742,-0.7682819816701114
1615356646941885700,8.8858857421875,-0.7240238838791847,0.4674982692837715,-0.7956471045881509
1615356646951818800,8.89581884765625,-0.6156447577029466,0.450158427426219,-0.8343177576355636
1615356646961751800,8.905751708984376,-0.4518459421217441,0.4013917661696672,-0.8543664200603961
1615356646971684600,8.9156845703125,-0.2702238850802183,0.3319920667290687,-0.9118962334871291
1615356646981617700,8.92561767578125,-0.08640577929913996,0.20566168879866598,-0.9507511570602655
1615356646991550700,8.93555078125,0.10076744559612125,0.08231997129023075,-0.9565250642865896
1615356647001483800,8.94548388671875,0.23133622828125952,0.016330372554063798,-0.9742087511457502
1615356647011416600,8.95541650390625,0.3540618962505832,0.0719178197413683,-0.9299328254371881
1615356647021349600,8.965349609375,0.40210550392959266,0.1369423728376627,-0.7872470866419374
1615356647031282700,8.97528271484375,0.493443478933908,0.13076514550745486,-0.583980037894845
1615356647041215700,8.9852158203125,0.6661719258259982,0.061496378970146176,-0.3923218861378729
1615356647051148500,8.9951484375,0.812146330903098,-0.029456980630755424,-0.18562120968028903
1615356647061081600,9.00508154296875,0.8607161544132977,-0.10690730005800723,-0.00791954095289111
1615356647071014700,9.0150146484375,0.8239625870335847,-0.17065175021588802,0.1091226380199194
1615356647080947700,9.02494775390625,0.7665694055985659,-0.21641104635000227,0.1689450924284756
1615356647090880500,9.034880615234375,0.721988578659296,-0.24729367586970327,0.17515403007119892
1615356647100813600,9.0448134765625,0.7099632098227739,-0.2556616912424564,0.11345394522249698
1615356647110746600,9.05474658203125,0.7128618538737297,-0.26512685420215126,-0.02722659123018384
1615356647120679700,9.0646796875,0.7684107226163148,-0.22864567402303218,-0.23364611265882848
1615356647130612700,9.07461279296875,0.7641963928569108,-0.12569032646119593,-0.4443393658839166
1615356647140545500,9.084545654296875,0.7087807951051741,0.006228665256500244,-0.6321117622487247
1615356647150478600,9.094478515625,0.6716361825812608,0.10119418310821056,-0.7929974668622016
1615356647160411600,9.10441162109375,0.6329285585243255,0.17352935147881507,-0.9136996296472847
1615356647170344700,9.1143447265625,0.6161468620061874,0.2071434517890215,-0.9683936351262032
1615356647180277500,9.124277587890624,0.5823866312235594,0.21460545823276042,-0.9679992289811372
1615356647190210600,9.13421044921875,0.5663964504092931,0.21595453475415705,-0.8677223068483173
1615356647200143600,9.1441435546875,0.5476175156593323,0.18788111743628977,-0.6758836839579045
1615356647210076700,9.15407666015625,0.549184618845582,0.12290391061306,-0.4647041085205972
1615356647220009500,9.164009521484376,0.5877408517330884,0.060014615979790686,-0.25434549407735463
1615356647229942500,9.173942626953124,0.6500801843333989,0.005728899040818214,-0.1070009696908295
1615356647239875600,9.18387548828125,0.6731336545974016,-0.06201075823307037,-0.026196517530083653
1615356647249808600,9.19380859375,0.6889939984869211,-0.14170622623860835,-0.03521393672227859
1615356647259741400,9.203741455078125,0.7194464198958128,-0.22517829017341134,-0.08231690255030989
1615356647269674500,9.213674560546876,0.7208726533066481,-0.2763625339657068,-0.13368570912927388
1615356647279606500,9.2236064453125,0.6505647529799491,-0.3011953619271517,-0.203532713945955
1615356647289539600,9.23353955078125,0.5427683951277286,-0.25782676032185553,-0.31524712202474475
1615356647299472600,9.24347265625,0.4276040657907724,-0.1808826368510723,-0.46618894025087354
1615356647309405400,9.253405517578125,0.3144879742205143,-0.09675181674659251,-0.6190715172812342
1615356647319338500,9.26333837890625,0.17954758885502814,-0.052471945515274995,-0.764840024522692
1615356647329271600,9.273271484375,0.05232471906431019,0.007497077757120132,-0.8935071748375892
1615356647339204600,9.28320458984375,-0.06055939038097858,0.07223521512746811,-1.030078084014356
1615356647349137700,9.2931376953125,-0.14184475792646406,0.11303367398381232,-1.1394412527918816
1615356647359070500,9.303070556640625,-0.20977036622650921,0.15150632024109362,-1.2419880195528268
1615356647369003500,9.31300341796875,-0.26665187181234357,0.20432664080262183,-1.3145973286896944
1615356647378936600,9.3229365234375,-0.29906711772680283,0.2897422400206327,-1.363240217436105
1615356647388869600,9.33286962890625,-0.3086305534292012,0.39419688622951504,-1.3659158663861453
1615356647398802400,9.342802490234375,-0.2844809584915638,0.5133920054525136,-1.336304718106985
1615356647408735500,9.352735595703125,-0.2304226205676794,0.6366892992973328,-1.2683113783329725
1615356647418668500,9.36266845703125,-0.14874555029086767,0.7439911516308784,-1.1559667095266282
1615356647428601600,9.3726015625,-0.0021299247007817027,0.8486988958179951,-0.9947210855595767
1615356647438534400,9.382534423828124,0.18661226654425261,0.900105842450261,-0.7995506878979504
1615356647448467500,9.392467529296875,0.3971376889217645,0.9051286390483378,-0.6462744353748857
1615356647458400500,9.402400390625,0.6664310882188379,0.9377432069271803,-0.5359339459978044
1615356647468333800,9.412333740234375,0.9498708670943975,1.0336135646641254,-0.4969105339899659
1615356647478266600,9.4222666015625,1.2209331026948989,1.1471154406815767,-0.5059976574175059
1615356647488199700,9.43219970703125,1.4828684673793613,1.1382605185747146,-0.5368531066693365
1615356647498132700,9.4421328125,1.755856410345435,0.9245704216212034,-0.5609576203562319
1615356647508065800,9.452065673828125,1.9934891084223985,0.6697638859033584,-0.5238765745878219
1615356647517998600,9.46199853515625,2.173484294914454,0.44857612667083735,-0.4096424387730658
1615356647527931600,9.471931640625,2.2821453067719935,0.2790162633448839,-0.26427067576423285
1615356647537864700,9.48186474609375,2.31859375372529,0.20303484742641448,-0.11523074563667178
1615356647547797800,9.4917978515625,2.32619341507405,0.23125205712914465,0.014117518810182809
1615356647557730600,9.50173046875,2.3061381767779587,0.34478841993808745,0.08879764287173747
1615356647567663600,9.51166357421875,2.2560214160867034,0.4740945988088846,0.04412687262669206
1615356647577596700,9.5215966796875,2.1584986149676144,0.5319944145917892,-0.09465075281411409
1615356647587529700,9.53152978515625,2.0455080494731663,0.4799982698947191,-0.3343696095153689
1615356647597462500,9.541462646484375,1.9195723699487746,0.32464462657570836,-0.6512314732603728
1615356647607395600,9.5513955078125,1.790650806481391,0.10816109951138496,-1.0153672754861414
1615356647617332000,9.56133203125,1.667221410689503,-0.09137304631769656,-1.3970609462343155
1615356647627265000,9.57126513671875,1.5700881934098898,-0.1970470051884651,-1.762009087756276
1615356647637198000,9.581197998046875,1.5193343038588762,-0.2279214514017105,-2.080809079957008
1615356647647131000,9.591130859375,1.4395751229673623,-0.19509645564258096,-2.392405424389243
1615356647657064000,9.60106396484375,1.3157317395471035,0.17899813827872274,-2.6722674909085034
1615356647666997000,9.6109970703125,1.0007320164121687,1.171734918153286,-2.8586610001355406
1615356647676930000,9.620929931640624,0.5970902793586254,2.2621803771078586,-3.011117168447375
1615356647686862800,9.63086279296875,0.503597318277508,2.882866636109352,-3.2838848927915096
1615356647696796000,9.6407958984375,0.7815126346431672,3.1200609427690504,-3.6273157606408
1615356647706729000,9.65072900390625,0.9187754716068506,3.1782243779242036,-3.9851147610604762
1615356647716662000,9.660662109375,0.6484599627204239,3.3570267013698816,-4.278199589507282
1615356647726594800,9.6705947265625,0.25715222206115723,3.5776544886320827,-4.510688787215948
1615356647736528000,9.68052783203125,0.30799744315743444,3.3842695130825042,-4.719608016505837
1615356647746461000,9.6904609375,0.7630413045376538,2.5711761836528777,-4.670512561686337
1615356647756394000,9.70039404296875,1.2727699651770292,1.6784534371912478,-3.9147418326735495
1615356647766326800,9.710326904296876,1.7704587900631128,0.706139852142334,-2.7824372998937963
1615356647776259800,9.720259765625,2.2293260091237723,-0.11715104617476463,-1.5662258188933134
1615356647786193000,9.73019287109375,3.072000676216185,-0.6054056877613068,-0.29655878816768527
1615356647796126000,9.7401259765625,4.048808357813954,-0.9231628929108381,0.8286603163957595
1615356647806059000,9.75005908203125,3.252202637326717,-0.8352993160188198,1.4485603934556246
1615356647815991800,9.75999169921875,0.9255395589143037,-0.1405880358636379,1.5027468878038226
1615356647825924900,9.7699248046875,-1.0516893195807933,0.8733493529498577,1.3416035551674663
1615356647835858000,9.77985791015625,-2.417450433796644,1.6060118858367203,1.2106851187944412
1615356647845791000,9.789791015625,-3.5871570609927175,1.7879834869682787,1.0284273941978812
1615356647855723800,9.799723876953125,-4.045740202414989,1.49176240632236,0.6352027140013873
1615356647865656800,9.80965673828125,-2.020112326931953,1.2320914794385434,0.8293637884899974
1615356647875590000,9.81958984375,-2.0210545762181282,1.1518681881666182,0.6239204186171293
1615356647885523000,9.82952294921875,-3.5513287917643783,1.43749071790874,0.12819792536795138
1615356647895455700,9.839455810546875,-5.10543513379693,1.384306240209937,-0.6442645568571984
1615356647905388800,9.849388916015625,-4.306127168613672,0.8338345041632652,-0.7743345597073436
1615356647915321900,9.85932177734375,-3.3615038467839358,0.2748603127092123,-0.5328425558537244
1615356647925255000,9.8692548828125,-2.400632716117054,0.032273207095265384,-0.2869518786497414
1615356647935188000,9.87918798828125,-1.1279438533522188,-0.15515665944218635,-0.4212451982833445
1615356647945119700,9.88911962890625,0.16681553305387495,-0.18712006993591784,-1.0411972977913915
1615356647955052800,9.899052734375,0.9200748637676238,0.052424599242210386,-1.485520004801452
1615356647964985900,9.90898583984375,0.4874199443280697,-0.03129004127681255,-1.4389489538930356
1615356647974919000,9.9189189453125,-0.8952771071195602,-0.17369184856414793,-1.2127709851577877
1615356647984851700,9.928851806640624,-2.2664809969112274,-0.13541501713991164,-0.8458101886391639
1615356647994784800,9.93878466796875,-3.2272657644689082,0.08569149354994296,-0.506497423633188
1615356648004717800,9.9487177734375,-3.818307411313057,0.11357143412232398,-0.3620867607414722
1615356648014651000,9.95865087890625,-3.901106982813775,0.05862053127288818,-0.2560679339557886
1615356648024584000,9.968583984375,-3.1956127350986003,-0.014682605347037315,-0.2059999808423221
1615356648034517000,9.97851708984375,-2.1371941072627902,-0.12320026321113109,-0.1945551883727312
1615356648044450000,9.988449951171875,-1.2413657960012554,-0.23482523944079875,-0.012456015338748693
1615356648054383000,9.998383056640625,-0.8167331472367048,-0.38020752384364603,0.36514797494299706
1615356648064316200,10.008316162109375,-0.947635655388236,-0.5865455044686794,0.952400677832961
1615356648074249000,10.0182490234375,-1.386479200334847,-0.8670558057636022,1.7163725412189959
1615356648084182000,10.02818212890625,-1.7531158794656394,-1.2512947770804166,2.471153090150654
1615356648094115000,10.038114990234375,-1.848692807213962,-1.6169880378812551,2.9982176471248265
1615356648104048000,10.048048095703125,-1.7352321399897337,-1.887867171999812,3.1898066791683433
1615356648113981000,10.05798095703125,-1.552391939330101,-2.112714038261771,3.010206775604188
1615356648123914000,10.0679140625,-1.4021215906247495,-2.24015208517313,2.4788360458686944
1615356648133847000,10.077846923828124,-1.2866352627918123,-2.2761866906285286,1.8290568172432482
1615356648143780000,10.087780029296875,-1.2052198391258715,-2.1648229956835507,1.26238549541533
1615356648153713000,10.097712890625,-1.1985203414872287,-1.8951935693651436,0.7620571888711303
1615356648163646000,10.10764599609375,-1.277381696756184,-1.5968091732054948,0.3343357072457671
1615356648173579000,10.1175791015625,-1.400065242616832,-1.3111311138838528,-0.005008914203196764
1615356648183512000,10.127511962890624,-1.4833780243366956,-1.1170821214675903,-0.2044669260561466
1615356648193444900,10.13744482421875,-1.484503521235287,-1.0232353785127402,-0.26032142668180164
1615356648203378000,10.1473779296875,-1.4132123089596629,-0.9845312615871429,-0.17161591907292603
1615356648213311000,10.15731103515625,-1.2872718071296811,-1.0216063160061835,0.0001191694002598524
1615356648223244000,10.167244140625,-1.1459610099494457,-1.1169430052578448,0.25599377274103463
1615356648233176800,10.1771767578125,-0.9556088262245058,-1.2523615295290946,0.5367172783952207
1615356648243110000,10.18710986328125,-0.5778302830934524,-1.3004863857507705,0.7512501828484237
1615356648253043000,10.19704296875,-0.0032309447452425954,-1.1712854208201169,0.846857578800246
1615356648262976000,10.20697607421875,0.7130524080097674,-0.9765127903044223,0.7537507674925029
1615356648272908000,10.216907958984375,1.5221413241036235,-0.769452925145626,0.4311955144114792
1615356648282841000,10.226841064453126,2.400964140028506,-0.45602878076434133,-0.12737725663483143
1615356648292774000,10.23677392578125,3.0980162842214107,0.11866495786905289,-0.8497595107868313
1615356648302707000,10.24670703125,3.7769384590923782,0.9804834475010633,-1.7302542054466903
1615356648312640000,10.256639892578125,4.917748662149906,2.1780466343939304,-2.7704858730763195
1615356648322573000,10.266572998046875,6.191189220064878,3.611654373389482,-3.9418256544321775
1615356648332505900,10.276505859375,6.3618146667957305,4.762715921348333,-4.871676354543864
1615356648342439000,10.28643896484375,4.947005151772498,4.708137358942627,-5.0387119600892065
1615356648352372000,10.2963720703125,3.0359309994474053,3.264855782672763,-4.72385398351252
1615356648362305000,10.306304931640625,1.7168720151737331,0.9334306044250726,-4.453246359811723
1615356648372237800,10.31623779296875,0.9891945772230625,-1.6554694519668816,-4.394881264604628
1615356648382171000,10.3261708984375,0.4512570363178849,-3.9279140334576366,-4.316606477051973
1615356648392104000,10.33610400390625,-0.23909634088873863,-4.789432078838348,-3.8725416903257366
1615356648402037000,10.346037109375,-1.5108675042867659,-3.805028243023157,-2.4441068239234385
1615356648411969800,10.3559697265625,-3.3037492846906185,-1.597494817382097,-0.35630437794774766
1615356648421902800,10.36590283203125,-4.662373386633396,1.34233815305233,1.5152102096661924
1615356648431836000,10.3758359375,-5.445879387050867,4.468943987420201,2.948829931360483
1615356648441769000,10.38576904296875,-5.0678059526264665,7.722423805075883,4.248679772773385
1615356648451701800,10.39570166015625,-3.602160568857193,11.235102255928515,6.636723494821786
1615356648461634800,10.405634765625,2.235908310123533,15.524916587644814,10.152432107150554
1615356648471568000,10.41556787109375,4.988646491193771,11.673331176108121,6.745496004229784
1615356648481501000,10.4255009765625,5.143113414806127,3.307000395441055,2.19763951587528
1615356648491434000,10.43543408203125,2.987547492289543,-1.8248200564563273,1.51017922976166
1615356648501366800,10.44536669921875,-0.25776012482643124,-4.311061117884517,1.6496574046872554
1615356648511299800,10.4552998046875,-1.468779590141773,-5.694449074205756,1.4562906954467296
1615356648521233000,10.46523291015625,-2.0321862110853193,-7.138519170504808,0.9734297295972705
1615356648531166000,10.475166015625,-2.4837305399119853,-8.208770567214488,0.5548727474845946
1615356648541098800,10.4850986328125,-2.6329063713788985,-8.58023890428543,0.463050203833729
1615356648551031800,10.49503173828125,-2.956159835857153,-7.976728236490487,0.6796722625859082
1615356648560964900,10.50496484375,-3.8601720380961893,-6.040164545860886,0.9251330239400267
1615356648570898200,10.514898193359375,-4.662499643361568,-3.896260419565439,1.303006844139099
1615356648580830000,10.524829833984375,-5.075817409646511,-2.0772855820059775,1.7405401832699774
1615356648590762800,10.5347626953125,-5.146626391363144,-0.5397931056439876,2.145805283741653
1615356648600695800,10.54469580078125,-5.079169058161973,0.7057464689105749,2.4739029733806848
1615356648610628900,10.55462890625,-4.796961889821291,1.4050404006808996,2.6819930583700535
1615356648620561400,10.5645615234375,-4.224795623838901,1.5562532909333704,2.6821467876270413
1615356648630494500,10.574494384765625,-3.6582267394721506,1.5287527050673961,2.37037567114979
1615356648640427300,10.58442724609375,-3.1828888626039027,1.5573048458129166,1.8460704958863556
1615356648650360300,10.5943603515625,-2.6147896999299522,1.1140180577218532,1.429998900848627
1615356648660293400,10.60429345703125,-2.1000654229603706,0.4662614209651947,0.9927747737973928
1615356648670226400,10.614226318359375,-1.7042472191393374,-0.06983750633597373,0.5457827014476061
1615356648680159200,10.6241591796875,-1.3592226523578166,-0.3447504260152578,0.1673361959271133
1615356648690092300,10.63409228515625,-0.8436485536258668,-0.41677579778432844,-0.3719320090599358
1615356648700025300,10.644025390625,1.0225836366057395,-0.8023235136121512,-1.6696349015720187
1615356648709958700,10.653958740234375,3.7166292440801856,-1.0014771356910466,-3.0941257065236565
1615356648719891500,10.663891357421875,4.631818673893809,-0.1851917322218418,-3.582995265138149
1615356648729824500,10.673824462890625,4.981867790839075,0.9343038801282644,-4.077086942315101
1615356648739757600,10.683757568359376,7.412272398754954,1.9545143578618764,-4.993597391599416
1615356648749690600,10.693690673828126,5.355826191160083,2.453418988278508,-5.087243643546104
1615356648759623400,10.70362353515625,0.8129910380989313,2.28879132065773,-4.382892136125267
1615356648769556500,10.713556396484375,-0.9410451710820198,1.581113006901741,-3.8579444251745936
1615356648779489500,10.723489501953125,-0.28022498154751957,0.6745289083480834,-3.556014903753996
1615356648789422600,10.733422607421875,0.5543372523684055,0.15968845765292644,-3.180738406571746
1615356648799355400,10.74335546875,0.6402496221274138,-0.03345511035621166,-2.673816473916173
1615356648809288400,10.753288330078124,0.36871633494906125,-0.1474427240639925,-2.2544584045536813
1615356648819221500,10.763221435546875,0.05213935256004333,-0.2207633963406086,-1.918335960021615
1615356648829154600,10.773154541015625,-0.12577274404764174,-0.3345382440805435,-1.634216089927405
1615356648839087400,10.78308740234375,-0.05869359650909901,-0.36646015352010725,-1.3304443016409873
1615356648849020400,10.7930205078125,0.2609632317166775,-0.062386021286249156,-1.0732516014389692
1615356648858953500,10.802953369140624,0.5735498292952775,0.29893969195485115,-0.8944253125958144
1615356648868885500,10.812885498046874,0.7576561043679714,0.5299076714456081,-0.7090284131906927
1615356648878818600,10.822818603515625,0.7237175944089889,0.6616898850411176,-0.46052287731319663
1615356648888751600,10.832751708984375,0.5954875203371047,0.6637380497425794,-0.14150690427422521
1615356648898684400,10.842684326171875,0.5446429568279534,0.6442173567146062,0.2702414207369089
1615356648908617500,10.852617431640626,0.5651175165146589,0.7410814016640186,0.7117980240345001
1615356648918550500,10.862550537109374,0.6286030234754085,0.9384382034540176,1.0784241817712783
1615356648928483600,10.872483642578125,0.88746321849823,1.0801894378781318,1.2859895122341811
1615356648938416400,10.88241650390625,1.3400531108550726,1.1185738213300704,1.2067375502124429
1615356648948349400,10.892349365234375,1.9478972778096795,1.0300549953997133,0.7611265569575131
1615356648958282500,10.902282470703126,2.5611364356756208,0.8594348093658685,0.03714724287241697
1615356648968215600,10.912215576171874,2.939413283717632,0.7558446710318326,-0.829909878065437
1615356648978148400,10.9221484375,3.1838655986815687,0.8145277461469173,-1.647383760666847
1615356648988081400,10.932081298828125,3.447051840209961,1.1172703375160693,-2.2164551293738186
1615356648998014500,10.942014404296875,3.768677411225438,1.6461767229646442,-2.466517539304495
1615356649007947500,10.951947509765626,4.1833880931735035,2.1272616190522906,-2.378157849458605
1615356649017880300,10.96188037109375,4.50551927562356,2.0521271753519774,-2.1137233614347872
1615356649027813400,10.9718134765625,4.094134523227811,1.7561901723444462,-1.9731207125239074
1615356649037746400,10.981746337890625,3.385203871323168,1.7853928859531878,-1.7802585918046534
1615356649047679500,10.991679443359375,2.740960503384471,1.8574474838167427,-1.4724832669652999
1615356649057612500,11.001612548828126,1.958118519833684,1.9040765485227107,-1.12899993827641
1615356649067545300,11.01154541015625,1.098723457956314,2.18050864059329,-0.970238678470999
1615356649077478400,11.021478515625,0.31256328976824876,2.669088860872388,-1.198442746206373
1615356649087411500,11.031411376953125,-0.35537265005558727,3.4359868408381935,-1.6797376317828894
1615356649097344500,11.041344482421875,-0.754802322372049,3.9436885256946086,-2.0736137616254386
1615356649107277300,11.05127734375,-0.6043342591375113,3.721322954854369,-2.0142834746479985
1615356649117210400,11.06121044921875,0.37522812799587846,2.569309220737219,-1.3906070939198136
1615356649127143400,11.071143310546875,1.8778098883658647,0.8547475283324718,-0.47981297645568843
1615356649137075500,11.081075439453125,2.2924720549970865,-0.6280138254106045,0.1519334596119821
1615356649147008500,11.091008544921875,1.3678238919645547,-1.0388725081056356,0.21463497658818959
1615356649156941300,11.10094140625,0.3834171335399151,-0.6204805072963238,0.303518544177711
1615356649166874400,11.110874267578126,-0.10630348894596099,-0.06293079568743705,1.025828025354445
1615356649176807400,11.120807373046874,-0.34072372778244314,0.6252724177479744,2.278127011041343
1615356649186740500,11.130740478515625,-0.7201905893266201,1.6310849522948263,3.8255589898765083
1615356649196673300,11.14067333984375,-1.364456315227598,2.9605531023800373,5.5262160755693905
1615356649206606300,11.1506064453125,-2.3485317958712577,4.319375357243419,6.576462795126438
1615356649216539400,11.160539306640626,-3.185592860865593,4.455085557937622,5.680078019025921
1615356649226472400,11.170472412109374,-3.2779055261209606,2.8167472735136747,3.883481602013111
1615356649236405200,11.1804052734375,-2.7906302509605885,0.7686930466890335,2.491427816416323
1615356649246338300,11.19033837890625,-2.462779521819949,-0.5334972203701734,1.5636979078508912
1615356649256271400,11.200271240234375,-2.3927520458698273,-1.402684192943573,0.8431161272495985
1615356649266204400,11.210204345703126,-2.3576035755991933,-2.1280752735227346,0.45030485015958543
1615356649276137500,11.220137451171874,-2.0425661508023736,-2.504511462134123,0.3695828155852854
1615356649286070300,11.2300703125,-1.7187842785358427,-2.357359829971194,0.4073952443681657
1615356649296003300,11.24000341796875,-1.9715724601686,-1.8057699035495518,0.35567148687168954
1615356649305936400,11.249936279296875,-2.576513453027606,-1.337200205641985,0.4961409378569573
1615356649315869400,11.259869384765626,-3.2525138952329753,-1.1066904913127422,0.6530716942995787
1615356649325802200,11.26980224609375,-3.698194884984195,-0.8215881860524415,0.5501026104733348
1615356649335735300,11.2797353515625,-3.672685472935438,-0.6471399661630391,0.296041267099604
1615356649345668600,11.289668701171875,-2.910963434302807,-0.41011575537323947,-0.030350349273905158
1615356649355601700,11.2996015625,-1.5273720643639563,-0.13506956470310688,-0.4553006126202643
1615356649365534500,11.309534423828126,-0.7689201334431767,-0.17021043618917464,-0.4878582626800984
1615356649375467500,11.319467529296874,-1.21703741043061,-0.36435236758589745,-0.2383474952828139
1615356649385400600,11.329400634765625,-1.8223393455564976,-0.5743763432472944,0.1643544036373496
1615356649395333600,11.339333740234375,-2.1422321014299985,-0.8859832090735434,0.8179662692282348
1615356649405266400,11.349266357421875,-2.0321192833289503,-1.2281973946094513,1.6251801121652125
1615356649415198200,11.3591982421875,-1.7492343618571757,-1.952198482134938,2.6399048519641157
1615356649425131300,11.36913134765625,-1.5520985093414783,-2.768681454002857,3.519489592172205
1615356649435064600,11.379064697265624,-1.7710484265193343,-3.406112511578202,3.956570803621411
1615356649444997600,11.38899755859375,-2.2340762723907828,-3.8385394674807785,4.028727985076606
1615356649454930400,11.398930419921875,-2.3863211360394954,-4.1204859390586615,3.9310248589545487
1615356649464863500,11.408863525390625,-2.3689880161836743,-4.257041942927241,3.641420273838937
1615356649474796500,11.418796630859376,-2.443340369595587,-3.966194372013211,3.0119512811839577
1615356649484729600,11.4287294921875,-2.5578081680357454,-3.324016412171721,2.209921489821374
1615356649494662400,11.438662353515625,-2.660758547161519,-2.6205986784696575,1.3646031763523816
1615356649504595500,11.448595458984375,-2.778621833258867,-1.9598866985499859,0.47519466900527474
1615356649514528500,11.458528564453125,-2.8038232022717593,-1.3725684561431406,-0.3953139806259423
1615356649524461600,11.468461669921876,-2.6124603801995514,-0.878376825723052,-1.2198176157336682
1615356649534394600,11.47839453125,-2.2396023423358797,-0.42487960926294327,-2.0104700538396836
1615356649544327400,11.488327392578125,-1.7293053802892564,0.2181885774165392,-2.8338556447029113
1615356649554260500,11.498260498046875,-0.6409343895211815,1.1142372534304856,-3.580802723529935
1615356649564193500,11.508193603515625,1.4078933058939873,2.122494843041897,-4.0537934527501465
1615356649574126600,11.518126708984376,3.6125153741329905,3.207499572247267,-4.404767575585842
1615356649584059400,11.528059326171874,5.474968703413009,4.356984080147743,-4.683306869068741
1615356649593992400,11.537992431640625,7.65814276382327,5.543004128763079,-4.836127779039741
1615356649603925500,11.547925537109375,9.419216032034159,6.415327645796537,-4.388151956349611
1615356649613855000,11.55785498046875,9.830524212062357,6.3565580614417785,-3.0786835149809715
1615356649623787800,11.567787841796875,8.888185494038462,5.358212794035673,-1.1089931422319264
1615356649633720800,11.577720947265625,7.030427044576406,3.8043314929306504,0.32964221566729246
1615356649643654000,11.58765380859375,4.79831476573497,1.604140246745944,0.6607206746827811
1615356649653587000,11.5975869140625,3.2104701124906536,-1.2454635867089032,0.19077369707264005
1615356649663519700,11.607519775390625,2.286712614687532,-3.782942083421349,-0.16291929280031472
1615356649673452800,11.617452880859375,0.8247638934791087,-5.006261058339477,0.4061508703302592
1615356649683385900,11.6273857421875,-1.4241805699586867,-5.032762696295976,1.7410118924349545
1615356649693318000,11.63731787109375,-3.73445073197484,-3.619056758600473,3.0010934948220847
1615356649703251000,11.6472509765625,-5.206210214710235,-1.1055693783283234,3.8520229261711236
1615356649713184000,11.65718408203125,-5.482534754753113,2.060712632867694,4.863388418669999
1615356649723116800,11.66711669921875,-5.36547255590558,5.475661361852288,6.632610214284062
1615356649733049900,11.6770498046875,-5.2944297654330725,8.008232212778925,8.16745714457333
1615356649742983000,11.68698291015625,-4.87937830722332,8.574356860509514,8.47909966623485
1615356649752916000,11.696916015625,-4.268937547904253,6.256679637107252,6.974803357031941
1615356649762848800,11.706848876953124,-3.6268648020029066,2.31098503228724,4.377172004912794
1615356649772781800,11.71678173828125,-2.9506770205318924,-1.5973264750778675,2.1853929055035115
1615356649782715000,11.72671484375,-1.0811188276827335,-4.461969472232461,1.012667003551498
1615356649792648000,11.73664794921875,1.3127882334411143,-6.13092676680386,0.4778568739518523
1615356649802580700,11.746580810546876,2.425145079952478,-6.6620654413491485,0.32181868243478234
1615356649812513800,11.756513671875,1.7342191635549067,-6.247148423174023,0.20410620298497378
1615356649822446800,11.76644677734375,0.5136240606427193,-5.263069581529498,0.07270633977055549
1615356649832380000,11.7763798828125,-0.48614334852099417,-4.167717645832896,-0.04320259738862514
1615356649842312700,11.786312744140625,-1.1361235065460205,-2.7878327291965483,-0.027605361414700744
1615356649852245800,11.796245849609376,-1.357338153785467,-1.510499840018153,0.20907120498120785
1615356649862178800,11.8061787109375,-1.5597580841839314,-0.3898690861582756,0.4028796666398644
1615356649872111900,11.81611181640625,-1.86414785823822,0.6789654294908046,0.5139195364579559
1615356649882044700,11.826044677734375,-2.065301714223623,1.4673609555155038,0.5971035772316158
1615356649891977700,11.835977783203125,-2.015553056192398,1.9242483989357948,0.6628672582574189
1615356649901910800,11.845910888671876,-1.7517127346694468,2.1843477803647517,0.5981206453196704
1615356649911843800,11.85584375,-1.0347695297662167,2.309988422465324,0.3549218375481665
1615356649921777000,11.86577685546875,0.6134359225470573,1.6577555170774458,-0.2658582372166216
1615356649931709700,11.875709716796875,0.9602068946044892,0.6153145028352737,-0.8470261403001844
1615356649941642800,11.885642822265625,0.32330373336076734,0.18030571374595164,-0.9526530451588332
1615356649951574800,11.89557470703125,-0.13828271806333214,0.23252397676110267,-0.901174640725553
1615356649961507800,11.9055078125,-0.7533107686400413,0.1718944437533617,-0.9511573997735977
1615356649971441000,11.91544091796875,-1.1949322538673877,-0.06493336768150329,-1.032088839314878
1615356649981373700,11.925373779296875,-1.3469237272769212,-0.41862756313085553,-1.0898569915421306
1615356649991306800,11.935306640625,-1.1531120507478714,-0.8578852418363094,-1.1789946800231932
1615356650001239800,11.94523974609375,-0.7045493680804967,-1.2180085935503244,-1.3045489590145647
1615356650011172900,11.9551728515625,-0.24541673954930154,-1.3735048602104185,-1.4134294588416814
1615356650021105700,11.965105712890624,0.08975625877082348,-1.3297346920669078,-1.4815043394193053
1615356650031038700,11.975038818359375,0.3220248359987512,-1.1535966193944216,-1.526573753593117
1615356650040971800,11.9849716796875,0.4360744090268388,-0.761461341869831,-1.6165335721120238
1615356650050904800,11.99490478515625,0.3897247457841411,-0.2318167052745819,-1.83142661511451
1615356650060837600,12.004837646484376,0.24854572175741194,0.3568243101686239,-1.9962350461296736
1615356650070770700,12.014770751953124,0.05280095827393234,0.8115180429369211,-2.068640064866096
1615356650080703700,12.024703857421875,0.046499337379075585,0.964685574388504,-1.9307848149672149
1615356650090637000,12.034636962890625,0.21642324824444947,0.8932406328558922,-1.5554429974637924
1615356650100569900,12.04456982421875,0.40720300973169504,0.8246966734617948,-1.2287624811463058
1615356650110503000,12.0545029296875,0.6352301865302026,0.8640355811595917,-1.0240769439034163
1615356650120436000,12.06443603515625,0.9092496645011007,0.9029138856083154,-0.962123030424118
1615356650130369000,12.074369140625,1.208372750198841,0.9369909272551536,-0.899900675266981
1615356650140301800,12.0843017578125,1.5684148533701896,1.0380834035545587,-0.7231497313931584
1615356650150235000,12.09423486328125,2.043739286234975,1.2274901231229305,-0.44829058772772545
1615356650160168000,12.10416796875,2.6065117009282113,1.445161398667097,-0.16256971217766403
1615356650170101000,12.11410107421875,3.208467248235643,1.6210066258728504,-0.056455608323961494
1615356650180034000,12.124033935546874,3.6531466597288844,1.8080887018859386,-0.25121698679327964
1615356650189966800,12.133966796875,3.7594077708378433,1.9172434886097907,-0.7415038648597896
1615356650199900000,12.14389990234375,3.6512197833195326,1.76940562774837,-1.306290249723941
1615356650209832000,12.15383203125,3.5267362022995945,1.4428805942535399,-1.7537981626413761
1615356650219765000,12.163764892578126,3.3141502671957013,1.0866992581635713,-2.019081960970908
1615356650229698000,12.173697998046874,3.02765095461905,0.7874503541290759,-2.133768955119699
1615356650239630800,12.183630859375,2.571397132927179,0.6619289544939995,-2.140910059046
1615356650249564000,12.19356396484375,2.079494782488048,0.8606962076038122,-2.1369166054956614
1615356650259497000,12.2034970703125,1.8415223310627042,1.187426992803812,-2.116662191365659
1615356650269430000,12.213429931640626,1.9282057582594454,1.443417769870162,-2.0683326063521204
1615356650279362800,12.22336279296875,2.188595500937104,1.2818348767727612,-1.8941322237439453
1615356650289296000,12.2332958984375,2.5559949811339377,0.5622708949118852,-1.6962040518067776
1615356650299229000,12.24322900390625,2.639329097902775,-0.32468905023932454,-1.3441925487473607
1615356650309162000,12.253161865234375,2.4483507451035083,-0.5801835682213307,-0.8909422927856445
1615356650319094800,12.2630947265625,2.133671486094594,0.29678339070379733,-0.35259777851477264
1615356650329027800,12.27302783203125,1.899375823485851,1.408333012485504,0.27600261461213227
1615356650338961000,12.2829609375,1.7271289130330085,2.554019297146797,0.5728872006680816
1615356650348894000,12.29289404296875,1.602386973337829,3.8585745397716757,0.35492271433100103
