time,seconds_elapsed,z,y,x
1615357261913163800,-0.054836181640625,-0.17291969514787195,-0.07256576225608587,-0.07819120092242955
1615357261923095800,-0.044904296875,-0.0984907693684101,-0.032575112651288506,-0.3727162913054228
1615357261933027600,-0.034972412109375,-0.009235445857048033,0.03934299935102462,-0.5541121383756399
1615357261942959600,-0.025040283203125,-0.08688450272679328,0.15409078377634286,-0.6104517191044986
1615357261952892400,-0.015107666015625,-0.08599018423557281,0.1475926539286971,-0.5351226296149194
1615357261962824700,-0.00517529296875,0.099632340618968,0.07268325115591287,-0.45886371192932124
1615357261972756700,0.0047568359375,0.29327216771245,-0.010201368279755115,-0.4587666812956333
1615357261982688800,0.014688720703125,0.3127180419385433,-0.05770224738419055,-0.4277773765310645
1615357261992620800,0.024620849609375,0.2401467267245054,-0.08031564573049545,-0.38791736756861206
1615357262002553600,0.0345537109375,0.3374333810001611,-0.05143383463919163,-0.3747292385630309
1615357262012485600,0.044485595703125,0.35871465395987034,-0.01740297022163868,-0.4418323514990508
1615357262022417700,0.054417724609375,0.1344406191498041,-0.03530073822289705,-0.5272359680183232
1615357262032349700,0.064349609375,-0.08764964188039302,-0.05378302811384201,-0.6171054779052734
1615357262042282500,0.074282470703125,-0.008246434819698334,-0.012183774268627165,-0.6329873760394752
1615357262052214500,0.084214599609375,-0.08812894982993602,0.06536971327215432,-0.5574510735400021
1615357262062146600,0.094146484375,-0.15871581322848796,0.11385609628260135,-0.44968058078140016
1615357262072078600,0.10407861328125,-0.02845978628695011,0.09232055630087851,-0.37689021598920225
1615357262082011600,0.11401171875,0.16143033288419245,0.062490650704503055,-0.37761253891438246
1615357262091943400,0.123943359375,0.22964520645439623,0.08890811750888825,-0.3841790578231215
1615357262101875500,0.13387548828125,0.28137948534488677,0.1402490131676197,-0.38655090152099725
1615357262111807500,0.143807373046875,0.32796120377779003,0.13774492139220237,-0.35855770983248947
1615357262121740500,0.153740478515625,0.35599896526038644,0.08384235855191946,-0.2948497922927141
1615357262131672600,0.163672607421875,0.3899029884278774,0.02910685201883316,-0.26653964360952376
1615357262141604600,0.1736044921875,0.37259471075236794,0.03532382683753967,-0.21957900886163115
1615357262151536600,0.18353662109375,0.305422624233365,0.07817804917991161,-0.1788249736689031
1615357262161468400,0.193468505859375,0.21161562876701354,0.11116495750248431,-0.23558336433172225
1615357262171401500,0.2034013671875,0.19860124889314174,0.0996849475890398,-0.2897900246851146
1615357262181333500,0.21333349609375,0.19281974288225173,0.10506897871494293,-0.3034782121673226
1615357262191265500,0.223265625,0.08410685470700263,0.1057391330614686,-0.2925618274860084
1615357262201197600,0.233197509765625,0.00315057298541069,0.12413812858313321,-0.2281040962259285
1615357262211130600,0.243130615234375,-0.06922843452692032,0.1367635091394186,-0.15574673428982494
1615357262221062700,0.253062744140625,0.07864215956032276,0.13842179774045943,-0.13671440930068493
1615357262230994400,0.262994384765625,0.2897217817544937,0.15385376015007496,-0.19106939208358525
1615357262240926500,0.272926513671875,0.3464683358490467,0.1920019967585802,-0.24602438658624887
1615357262250859500,0.282859619140625,0.3861386674582958,0.2319943999290466,-0.2943852435208857
1615357262260791600,0.29279150390625,0.5608838244676589,0.18821750978380442,-0.3492715567015111
1615357262270723600,0.3027236328125,0.7004033543169498,0.0968704746901989,-0.3788071555264294
1615357262280655600,0.312655517578125,0.6660206077218055,0.097386899779737,-0.3874566181890666
1615357262290588700,0.322588623046875,0.6245107857257127,0.13924889621436595,-0.40242505474016066
1615357262300520700,0.332520751953125,0.6935784767329692,0.1669575718730688,-0.41039413392320273
1615357262310452500,0.342452392578125,0.6378910763025284,0.20356442425847052,-0.45987318123281
1615357262320384500,0.352384521484375,0.5510667793303727,0.2452981181383133,-0.6040875909000635
1615357262330316500,0.362316650390625,0.6280149944543838,0.2774608505964279,-0.7567429350458085
1615357262340249600,0.37224951171875,0.7986176448315382,0.31158816112577914,-0.8546331081725657
1615357262350181600,0.382181640625,0.8691437179535627,0.3394827147454023,-0.8751366747580468
1615357262360113700,0.39211376953125,0.9437971001386641,0.349237216040492,-0.8112995048154145
1615357262370045700,0.402045654296875,1.0791647710055112,0.36008272744268177,-0.7162924859095364
1615357262379978800,0.411978759765625,1.183836859357357,0.4229088937118649,-0.6231267109561711
1615357262389910500,0.42191064453125,1.2499071221143006,0.48045419696867464,-0.5793227866735309
1615357262399842600,0.431842529296875,1.3140747661203145,0.5173679233461618,-0.5636573077689856
1615357262409774600,0.441774658203125,1.4088298560917376,0.5601829827219248,-0.5942232725549489
1615357262419707600,0.451707763671875,1.4673860899567603,0.6020277357608079,-0.6921094270937145
1615357262429639700,0.4616396484375,1.4849714310079811,0.6670142949342728,-0.778821788123995
1615357262439571700,0.47157177734375,1.3710276564419268,0.7480787132054567,-0.8359034193918109
1615357262449503700,0.481503662109375,1.187175063869357,0.8302887943804264,-0.8460393942851573
1615357262459436500,0.4914365234375,1.2943833927005528,0.9470826976805925,-0.8814865552414208
1615357262469368600,0.50136865234375,1.4218243622213602,1.0788181495249272,-0.9345386387322098
1615357262479300600,0.511300537109375,1.4015560656964778,1.1416840632826089,-0.9545707153484224
1615357262489232600,0.521232666015625,1.3407219500273466,1.1433429364055394,-0.973975088520348
1615357262499164700,0.53116455078125,1.3200433191359042,1.1472048725306987,-0.9762002172239124
1615357262509097500,0.541097412109375,1.2525567598402498,1.1802645538285375,-0.9186027453884482
1615357262519029500,0.551029541015625,1.1117138724327087,1.2233844413697719,-0.862301450843364
1615357262528961500,0.56096142578125,0.9434984094530343,1.2802309487074612,-0.8547505970723926
1615357262538893600,0.5708935546875,0.7926525989472866,1.3968956726700066,-0.8759247563958168
1615357262548826400,0.580826416015625,0.4953443075865507,1.5024237933292983,-0.8538076171338558
1615357262558758400,0.59075830078125,0.212998607558012,1.6160174392834306,-0.8316083525463939
1615357262568690400,0.6006904296875,-0.4870645550191402,1.7113599737539886,-0.7069494149595499
1615357262578622500,0.61062255859375,-0.36272155151367186,1.895093908382952,-0.746882781419158
1615357262588555500,0.620555419921875,0.4266021952718496,2.2203911536484955,-0.6251832781597971
1615357262598487600,0.630487548828125,0.20513269648849963,2.388157119295001,-0.45600598441064355
1615357262608419600,0.640419677734375,0.14909458292424677,2.339672197589278,-0.29963176587224005
1615357262618351400,0.650351318359375,0.4677449375212192,2.213092228811979,-0.09013707478195428
1615357262628283400,0.660283447265625,0.7734452096521854,2.000173700752854,0.09386047921925783
1615357262638216400,0.670216552734375,1.024494438663125,1.8141788354545831,0.3191483672469854
1615357262648148500,0.6801484375,0.6829284879028796,1.7543167796880006,0.5725888753086328
1615357262658080500,0.69008056640625,0.18158640120625494,1.7002324305400252,0.7380348735749721
1615357262668012500,0.700012451171875,0.2466442720502615,1.7203142645820975,0.8218176108941435
1615357262677945600,0.709945556640625,-0.09860650470256804,1.6937202721670268,0.918250570949912
1615357262687877600,0.719877685546875,-0.21177461872100828,1.6746745031744241,0.8920788956001401
1615357262697809400,0.729809326171875,-0.31507834132909773,1.6002549297451971,1.002877357877791
1615357262707741400,0.739741455078125,-0.8494353933990001,0.8955483252763747,1.1126163742303847
1615357262717674500,0.749674560546875,-0.8230909918308258,0.017120646148920057,1.1175906555116175
1615357262727606500,0.7596064453125,-1.7713550082504748,1.961191935929656,0.7426634101584553
1615357262737538600,0.76953857421875,-2.232096789011359,3.147989398658275,0.26211978134065866
1615357262747470600,0.779470703125,-0.7687702035784721,2.845601319815218,0.17978987317830322
1615357262757402600,0.789402587890625,0.2086503492206335,2.133095439772308,0.22803338734358547
1615357262767335700,0.799335693359375,0.008915127861499787,1.8939915000990033,0.35797698733508587
1615357262777267500,0.809267333984375,-2.3952730887800455,1.9776304450333118,0.30518180121481414
1615357262787199500,0.819199462890625,-2.83659880593121,1.8111080497071146,0.0018757307440042494
1615357262797131500,0.829131591796875,-1.3003554528474808,1.3362617557480931,-0.008072831818461417
1615357262807064600,0.839064697265625,-0.24658874247074125,1.5308797802239655,-0.0731546680599451
1615357262816996600,0.84899658203125,0.4605880515038967,2.138488823248446,0.10520224970579146
1615357262826928600,0.8589287109375,0.7114145776748657,2.6839874470576643,0.6694131727695465
1615357262836860700,0.868860595703125,-0.14148293887674807,3.0447952739045023,1.2855401610314845
1615357262846793700,0.878793701171875,-1.990895584797859,2.7555738428875802,1.7496815211027859
1615357262856725500,0.8887255859375,-3.7149791387856004,1.6134052109584212,2.301433944609761
1615357262866657500,0.898657470703125,-3.433118591925502,0.4814087212145328,1.8102403269618748
1615357262876589600,0.908589599609375,-2.412958967596292,0.18114070326536894,1.011463692176342
1615357262886521600,0.918521484375,-1.6101438710749147,0.21801702024191616,0.29553192933797834
1615357262896454700,0.92845458984375,-1.4927344662249087,0.2818313207656145,-0.14110884486734868
1615357262906386700,0.93838671875,-1.463669699782133,0.31180969492197036,-0.41205169187188145
1615357262916318700,0.948318603515625,-1.4868845711529255,0.16060615701973438,-0.4720692304611206
1615357262926250500,0.95825048828125,-1.4578291570603847,0.013429098154604434,-0.330219796359539
1615357262936183600,0.96818359375,-1.30958856061697,-0.05907148991078138,-0.15220131676793097
1615357262946115600,0.978115478515625,-1.6107891832411287,0.005216857865452766,-0.03898118030130863
1615357262956047600,0.988047607421875,-1.700320401084423,-0.06966478011757135,-0.023292028260231017
1615357262965979600,0.997979736328125,-1.331813836428523,-0.3425980702869594,-0.09048808017671107
1615357262975912400,1.007912353515625,-0.8575473881840705,-0.5195940749630331,-0.1995300541758537
1615357262985844700,1.0178447265625,-0.5645329946249723,-0.6263545138962566,-0.1876882252126932
1615357262995776800,1.02777685546875,-0.8288368420064449,-0.4424569131381809,-0.22962650175392627
1615357263005708500,1.03770849609375,-1.7286276271581649,-0.16252996468916533,-0.26342648002505303
1615357263015641300,1.047641357421875,-2.0829700573831795,-0.21551994272917507,-0.22947920223772525
1615357263025573400,1.057573486328125,-1.6558581590235233,-0.2712788009606302,-0.2512982353359461
1615357263035505400,1.06750537109375,-1.4210592230677603,-0.17952201602235435,-0.36075697344243524
1615357263045437700,1.077437744140625,-1.5834861657738684,-0.18590762540623545,-0.6029705695688724
1615357263055369700,1.08736962890625,-1.645554207152128,-0.32341859191209077,-0.8283493507504462
1615357263065302500,1.097302490234375,-1.8844202464163302,-0.212392458358407,-0.8947457767218351
1615357263075234600,1.107234619140625,-2.6208587907105683,-0.16616671375632286,-0.8158668857961893
1615357263085166300,1.117166259765625,-2.501339846360683,-0.5206374465361238,-0.37099604338407516
1615357263095098400,1.127098388671875,-2.2383161019176243,-0.7388549577862024,0.001991466078162193
1615357263105031400,1.137031494140625,-2.428579730576277,-0.800480077702552,0.07509586525559425
1615357263114963500,1.14696337890625,-2.5075755258798598,-1.046010689422488,-0.04903144967257976
1615357263124895500,1.1568955078125,-2.3927158055126667,-1.1075228504836558,-0.12423895860910415
1615357263134827500,1.16682763671875,-2.5830156745284794,-1.08988168759197,-0.1940495769381523
1615357263144759600,1.176759521484375,-2.7411013731598852,-1.0506789734944701,-0.25261574767529965
1615357263154692600,1.186692626953125,-2.647503052008152,-1.1001296714924276,-0.2030857008308172
1615357263164624400,1.196624267578125,-2.4303537545114753,-1.1715880570285022,-0.1850438481837511
1615357263174556400,1.206556396484375,-2.4051556003689765,-1.0735280802927911,-0.16703998945951462
1615357263184488400,1.216488525390625,-2.2033277906447646,-1.1811832761086523,-0.11152560750842094
1615357263194421500,1.22642138671875,-2.020165518423915,-1.4014983441598712,0.04981646257042884
1615357263204353500,1.236353515625,-2.31810860055685,-1.500172361140698,0.2953407906800508
1615357263214285600,1.24628564453125,-2.9706325978457926,-1.4954239975698291,0.5792319665849208
1615357263224218000,1.256218017578125,-4.073386334231496,-1.5761942552000283,0.7529343365430832
1615357263234151200,1.266151123046875,-4.905851303607225,-1.760740967516601,0.5025152221292257
1615357263244083200,1.276083251953125,-4.424665869754553,-2.0292403668917713,-0.05841010339260101
1615357263254015000,1.286014892578125,-3.495259698539972,-2.022124105145782,-0.6075286712646484
1615357263263947000,1.295947021484375,-2.434828854098916,-1.841889995331317,-1.1723527577906847
1615357263273879000,1.305879150390625,-0.8311001107633114,-1.6951961899384855,-1.4633014509916304
1615357263283812000,1.31581201171875,0.4760989243686199,-1.695349188543111,-1.5561474924713372
1615357263293744000,1.325744140625,0.9898492417395114,-1.8657172995120286,-1.675191220524907
1615357263303676200,1.33567626953125,0.5783233273074031,-2.356851734318584,-1.7459493488371371
1615357263313608200,1.345608154296875,-0.2491395959973335,-2.667617034754157,-1.8915309552043675
1615357263323541200,1.355541259765625,-0.6997451826691627,-1.6536042426168918,-1.9513386504352093
1615357263333473000,1.36547314453125,-0.6203653564840554,-0.2294289333552122,-1.6251859573841094
1615357263343405000,1.375405029296875,0.24826076733618974,0.06759118871390819,-1.2616145110428332
1615357263353337000,1.385337158203125,1.134535360571742,-0.5510002899654209,-0.5252689057290554
1615357263363269000,1.39526904296875,1.1757114205688237,-1.344949942985922,0.13235095339417458
1615357263373202200,1.4052021484375,0.9636810735210776,-1.6888910984449088,0.4730260927945375
1615357263383134200,1.41513427734375,0.6301596052676439,-1.426826700553298,0.49150692138075824
1615357263393066200,1.425066162109375,0.5502449415534735,-1.0550967899367212,0.12905658802390096
1615357263402998000,1.434998046875,0.8642948166176676,-0.8317661734566092,-0.20288111816942692
1615357263412931000,1.44493115234375,1.1295368216320871,-0.6496598400294781,-0.32070962521433827
1615357263422863000,1.454863037109375,0.7270859017983079,-0.31309432790502906,-0.015866846695542336
1615357263432795100,1.464795166015625,-0.6025272097155452,-0.17772417282015085,0.36624621850848194
1615357263442727200,1.47472705078125,-1.6828464114531874,-0.7427649708367884,0.564867341145873
1615357263452660000,1.484659912109375,-1.6495853623643517,-1.1731688964791596,0.43818975721299647
1615357263462592000,1.494592041015625,-0.751285984814167,-1.1516814334228633,0.12392974652945994
1615357263472524300,1.504524169921875,0.16337416042834518,-1.0600380457311869,-0.22771979134976864
1615357263482456000,1.5144560546875,0.5565373196959496,-1.0290697837546467,-0.3807143043220043
1615357263492388000,1.52438818359375,0.3612742753148079,-0.8894184442192316,-0.19784780017733572
1615357263502321000,1.53432080078125,-0.07486015680357813,-0.8701498262561858,0.12092296592891215
1615357263512253000,1.5442529296875,-0.23731296460330484,-1.0700906531900167,0.3345195393800735
1615357263522185000,1.55418505859375,-0.23408260437995193,-1.2493661471053956,0.4169026390343904
1615357263532117200,1.5641171875,-0.5315373184740543,-1.3331830789551138,0.4105260897397995
1615357263542050000,1.574050048828125,-1.0430511089645325,-1.1425832040794193,0.26127368590533734
1615357263551982000,1.583982177734375,-1.6385538268707691,-0.7613960215486586,-0.005042670342326164
1615357263561913900,1.593913818359375,-1.7362221739403902,-0.4101230618968606,-0.3787760297358036
1615357263571846000,1.603845947265625,-0.5520233494028449,-0.08531462306156753,-0.453015570423007
1615357263581778200,1.613778076171875,-0.12434285737499594,0.04096533985584974,0.008128361397981643
1615357263591711000,1.6237109375,-0.6276502527952194,-0.36319326067864893,0.8652847044378519
1615357263601643000,1.63364306640625,-0.5345335776805877,-0.8399211306005716,1.7394202393293379
1615357263611575000,1.643574951171875,-0.1765175004441291,-0.871377468355,1.9656231963753699
1615357263621507000,1.653507080078125,1.3428069396078586,-0.26322160510271786,1.527809286737442
1615357263631440100,1.663440185546875,6.558000671240687,1.1359561871550976,-0.38564065480828286
1615357263641372000,1.673371826171875,6.678390553206205,1.4478973995022475,-2.4717636232644318
1615357263651304000,1.683303955078125,3.762445823359489,1.0398857768014074,-2.135121684902906
1615357263661236000,1.693236083984375,1.381284846562147,-0.1497588920518756,0.5168903689622879
1615357263671169000,1.7031689453125,-0.4273205726742744,0.5320205719463527,1.9176812955051659
1615357263681101000,1.71310107421875,-1.5030699822783469,1.5162280084066093,1.9423878667384384
1615357263691033000,1.723033203125,-1.1214660356402397,1.3554253059014678,1.4843910007715224
1615357263700965000,1.732965087890625,-0.07299394280659034,0.9428133497983217,0.7859411186099052
1615357263710897000,1.74289697265625,0.2564180443014018,0.6416923682816327,0.38590076704919335
1615357263720830000,1.752829833984375,-0.11571783503387123,-0.13000073700621723,-0.17747838136553765
1615357263730762000,1.762761962890625,0.624901830869913,-0.3714136842742562,-0.46632279576361174
1615357263740694000,1.772694091796875,1.1152806250035763,0.292587692579627,-0.913524711471796
1615357263750626000,1.7826259765625,0.6863327433884143,0.843622323206067,-1.2964087610483168
1615357263760559000,1.79255908203125,0.11852459955029189,0.7441093711830675,-1.148397881707549
1615357263770491100,1.8024912109375,-0.17575981394462287,0.5794467783793806,-0.6437286964148282
1615357263780423200,1.812423095703125,-0.1797498334288597,0.6010562603801488,-0.35968905194997786
1615357263790355000,1.82235498046875,-0.08887304619550704,0.4773983165293932,-0.46574645718038077
1615357263800287000,1.832286865234375,0.3999905941348523,0.21282120516449213,-0.3358499112010002
1615357263810220000,1.842219970703125,0.405822953550145,0.08691139073371887,0.027029461222887036
1615357263820152000,1.852152099609375,-0.08666114229969679,0.21848697584122417,0.2676490661561489
1615357263830084000,1.862083984375,-0.5918494560956955,0.18583003012537955,0.2718716522872448
1615357263840016100,1.87201611328125,-0.9034979691065848,-0.11132540876120328,0.19665011482536793
1615357263849949200,1.88194921875,-0.9209585877995937,-0.19940204388201235,-0.030503859335184097
1615357263859881200,1.891881103515625,-1.0746902559399605,-0.03196633310317993,-0.7827227410852908
1615357263869813000,1.90181298828125,-0.4801731150049716,-0.2286789917707443,-1.0630535941600798
1615357263879745000,1.9117451171875,0.5031961170654744,-0.1766276097550988,-0.7288496966004371
1615357263889678000,1.921677978515625,0.7826339668232947,0.04461041835993528,-0.1890565909564495
1615357263899610000,1.931610107421875,0.27231121274828907,0.3730170278176665,-0.19703999092578886
1615357263909542100,1.941542236328125,-0.3691676589131355,0.5356655043199658,-0.8609329389691353
1615357263919474200,1.95147412109375,-0.004277458123490214,0.8982032236993313,-0.8867577005773782
1615357263929406200,1.96140625,1.4334429038226604,1.6157584960862994,0.3441653196036815
1615357263939339300,1.97133935546875,1.2502362079381941,1.459659879618883,1.4214543598651885
1615357263949271000,1.98127099609375,0.22654665591716766,0.863132202579081,1.2266028188943863
1615357263959203000,1.991203125,-0.06494388907551765,1.0697755958914756,0.5796925698339939
1615357263969135000,2.001135009765625,-0.3760509886860847,1.3282000298455356,-0.2470399933695793
1615357263979068200,2.011068115234375,0.23548984082937238,1.1160600849434732,-0.2610942376852035
1615357263989000200,2.021000244140625,0.8696317937314509,0.7218424481868744,0.25927111391127106
1615357263998932200,2.03093212890625,0.4818612142223864,0.19245529348403215,0.463825133728981
1615357264008864300,2.0408642578125,-0.09048398852348327,-0.12649053692817688,0.5962450607061386
1615357264018796000,2.050796142578125,-1.1851041028141975,-0.2493149525642395,0.6669236940413713
1615357264028729000,2.06072900390625,-2.2298376119077203,-0.5637503198146819,0.663440528100729
1615357264038661000,2.0706611328125,-2.3746330363333223,-0.813028739760816,0.9582581716895103
1615357264048593200,2.08059326171875,-2.4293653279960155,-0.7969289610922337,0.4790180266857147
1615357264058525200,2.090525146484375,-1.4621674785256384,-0.8728110082894563,-0.873085733577609
1615357264068458000,2.1004580078125,-0.07754515810385346,-1.2539116815805433,-1.282794077193737
1615357264078390000,2.11039013671875,-0.0717208358645439,-1.5801593594387173,-0.8005722860306501
1615357264088322000,2.120322021484375,-1.064941453733295,-1.3610124583840368,-0.25969547680318356
1615357264098254000,2.130254150390625,-1.3057272090137004,-1.0021133877679704,-0.4209650661677122
1615357264108186000,2.14018603515625,-0.07341828743219375,-0.7739052283793687,-0.35304829876124855
1615357264118119000,2.150118896484375,0.6814777045726775,-0.9157423875212669,-0.5853256072849035
1615357264128051000,2.160051025390625,0.7741044772785156,-1.0355307964622973,-0.28021687130630013
1615357264137983000,2.16998291015625,0.4750642475586384,-0.6977224446699023,0.10948094993829727
1615357264147915000,2.1799150390625,0.14139350702762604,-0.2672372704848647,0.06512275277376174
1615357264157848000,2.18984814453125,0.05526420658230781,-0.04109510371536016,0.11103344007730484
1615357264167780000,2.199780029296875,-0.030806641674041745,-0.15075053343772887,0.32682781583368775
1615357264177711900,2.2097119140625,-0.12022431614026427,-0.3153562814876437,0.4297697193920612
1615357264187644000,2.219643798828125,-0.057880599625781175,-0.5835445690870285,0.21585633507668972
1615357264197576000,2.229575927734375,0.14682736864462495,-0.7889835550457238,0.14739537779092787
1615357264207509000,2.239509033203125,-0.20982932987213135,-0.7170940846160054,0.10304477941095828
1615357264217440800,2.249440673828125,-1.0931773681364954,-0.4016489558011293,-0.601951163393259
1615357264227372500,2.25937255859375,-0.7690541350863873,-0.06387947471439838,-1.2713456314623355
1615357264237304600,2.2693046875,0.2894086241520941,0.17506050656884908,-0.693239454036951
1615357264247237600,2.279237548828125,0.6043232993520796,0.08338643147796392,-0.04777414308786392
1615357264257169700,2.289169677734375,0.4952316409923136,0.31812340811342,0.4143891949087381
1615357264267101700,2.299101806640625,0.005089870484918355,0.8142892612159252,0.8029255711585283
1615357264277033700,2.30903369140625,-0.5619312876939774,1.1919696046695112,1.037752564164996
1615357264286966800,2.318966796875,-1.1824832527913152,0.928067908348143,0.865327374535799
1615357264296898800,2.32889892578125,-1.324810679668188,0.6405719859495759,0.7463993818163871
1615357264306830600,2.33883056640625,-1.8995722228407859,0.4366124248936772,0.7407529003620147
1615357264316762600,2.3487626953125,-2.1950972840465606,-0.04221007921993732,0.554348869740963
1615357264326694700,2.358694580078125,-1.9669883472487328,-0.06448153226077556,0.17438859865665435
1615357264336627700,2.368627685546875,-1.3659062217749653,0.08005670253336429,-0.4723386950522661
1615357264346559700,2.378559814453125,0.17456278617978094,-0.03953881418406963,-0.9038257397562265
1615357264356491800,2.38849169921875,0.8570517136216164,-0.7203910803347826,-0.5366635754466057
1615357264366423800,2.398423828125,1.246643590273708,-1.1945017534956335,0.08824994586110115
1615357264376355600,2.40835546875,1.3301441496506332,-1.4658306772083043,0.06744096658825874
1615357264386288600,2.41828857421875,1.0005269953593612,-1.6082123184904455,-0.33548633858561516
1615357264396220700,2.428220703125,0.6765022542476654,-1.7754285412997006,-0.5945803423643112
1615357264406152700,2.438152587890625,0.9725617145910859,-2.1302087784200907,-0.18341653924286364
1615357264416084700,2.448084716796875,1.106905303107202,-2.3545219761967657,0.2778980729699135
1615357264426017800,2.458017822265625,0.6943816098093986,-2.2357219937711954,0.06923018809258938
1615357264435949800,2.46794970703125,0.5874167343452572,-2.091648453879356,-0.2854115173399448
1615357264445881900,2.4778818359375,0.5130418768405914,-2.0608771757796407,-0.3477800029695034
1615357264455813600,2.487813720703125,0.4915206576451659,-1.8062857441172002,-0.6897405060052871
1615357264465746700,2.49774658203125,0.600529898418486,-1.2885600933745502,-0.9127987352848053
1615357264475678700,2.5076787109375,0.08017638339027762,-0.782140557283163,-1.3839233783721923
1615357264485610800,2.51761083984375,-0.5514755062617361,-0.1259337798282504,-1.9648194787770508
1615357264495542800,2.527542724609375,-0.8423509880959987,0.2599281165152788,-1.5763713653326035
1615357264505474800,2.537474853515625,-0.924983386336267,-0.028656185641884803,-0.7716752773702145
1615357264515408000,2.547407958984375,-0.9941875632047653,-0.17776684291809797,-0.3305202406108379
1615357264525340000,2.55733984375,-0.8608110661551356,-0.3003624182343483,-0.11934651039242744
1615357264535271700,2.567271728515625,-0.5914334226407111,-1.463762931023538,1.2266957578748463
1615357264545203700,2.57720361328125,-0.5816837436512112,-0.2761158657282591,0.9115314918279648
1615357264555136800,2.58713671875,0.08972074906602501,-1.256822308330238,1.238813481169939
1615357264565068800,2.59706884765625,0.3292131035350263,-0.8191092287182807,0.8593430394291878
1615357264575000800,2.607000732421875,0.5168528134308755,1.0260898911610246,-0.37592414743602276
1615357264584932900,2.616932861328125,0.6884194865345955,1.2691425684601068,-0.4243593847811222
1615357264594865000,2.626864990234375,0.4723218900479376,0.9640215575218201,0.048698856717348096
1615357264604798000,2.6367978515625,0.5514379507303238,-0.004451134189963341,0.5076034851789474
1615357264614729700,2.646729736328125,1.1219406674146652,-0.6945435223728418,0.6299369024276733
1615357264624661800,2.656661865234375,1.6541642145872115,-0.6794704564034938,0.8825719393253326
1615357264634593800,2.66659375,2.056892782318592,-0.694589699602127,1.2072077980726956
1615357264644526800,2.67652685546875,2.474409753859043,-0.07080255197584628,0.7602116340696812
1615357264654459000,2.686458984375,1.7305962968826294,0.46184944974184033,1.0436913065642117
1615357264664391000,2.696390869140625,0.7816694326400756,1.5622311962991953,0.9977268432468175
1615357264674323000,2.706322998046875,0.3043967883169651,2.654311855240166,0.7499737331718206
1615357264684254700,2.716254638671875,-0.40395259310100223,2.48750713584125,0.5033668705224991
1615357264694187500,2.7261875,-0.4581307580122724,1.8073878601402042,0.6965139456629753
1615357264704119800,2.736119873046875,-0.48099838684797286,1.6348805451855062,1.5486556754112242
1615357264714051800,2.7460517578125,-0.3866097921013832,1.3509405617028474,2.6080624375015495
1615357264723984000,2.75598388671875,-0.4948070954373106,0.3240367238104343,3.6839153074800968
1615357264733916000,2.765916015625,-1.2031085460603237,0.3377648049116134,3.3230373380064964
1615357264743848700,2.7758486328125,-2.2518495372295377,1.3288193307876586,1.0854232468783855
1615357264753780700,2.78578076171875,-2.609785023510456,2.219595619356632,-1.4059282894313334
1615357264763712800,2.795712646484375,-2.4608161127924917,2.306333407089114,-2.549495097720623
1615357264773644800,2.805644775390625,-1.4008043705463409,2.357151155656576,-2.5202280867040154
1615357264783577600,2.81557763671875,0.08101939181936904,2.02548934379518,-2.0628841316878797
1615357264793509600,2.825509521484375,0.6155260997593403,0.9276292246699332,-1.3440735985428094
1615357264803441700,2.835441650390625,0.7703916673004627,0.11534721162319182,-0.8433002516448497
1615357264813373700,2.845373779296875,1.3583856170117854,0.06326338864266871,-0.6939367886513471
1615357264823306800,2.855306640625,1.6306956607162952,0.3078893066078424,-0.5445978755772114
1615357264833238800,2.86523876953125,1.3307844933807849,0.3243558727622032,-0.5527531249821186
1615357264843170600,2.875170654296875,0.8929027792036532,0.006271335354447364,-0.8715431803107261
1615357264853102600,2.8851025390625,0.474608357017301,-0.171179573482275,-1.0175555793106554
1615357264863034600,2.89503466796875,0.4686801360120997,-0.6462795499414206,-0.7520049467384815
1615357264872967700,2.9049677734375,0.15087211399078368,0.17555179721713066,-0.382876450791955
1615357264882899700,2.914899658203125,-0.2876946963736787,0.3904471783071756,0.06850888808071613
1615357264892831700,2.924831787109375,-0.31785482030510903,-0.34466508581936356,-0.028194997870922087
1615357264902763800,2.934763671875,-0.31884609636478123,-1.195094166430831,-0.1371031163573265
1615357264912696800,2.94469677734375,0.09641805474758147,-1.9434604644060134,-0.11212883409857749
1615357264922628600,2.954628662109375,0.955422071480751,-1.09876846614182,0.5787900680363178
1615357264932560600,2.964560546875,0.2508253571271896,-0.19334873519241808,0.8137813116937875
1615357264942492700,2.97449267578125,-0.4242681993663311,-0.28071429943442344,0.6095487789154053
1615357264952424700,2.9844248046875,-0.3981586294673383,-0.36055005269348617,0.7415127788186073
1615357264962357800,2.994357666015625,-0.10481076617017387,-0.6012789632201194,0.8692068463176489
1615357264972289800,3.004289794921875,0.06381225469708442,-1.2973784828633068,0.3406950131446123
1615357264982221800,3.014221923828125,0.4153659309864044,-1.6249153237491845,-0.5299456653684378
1615357264992153600,3.024153564453125,0.5184241544008255,-1.3847697660684586,-0.9972983887016773
1615357265002085600,3.034085693359375,0.5388333207011222,-0.9057669369518756,-0.8568214119970798
1615357265012018700,3.044018798828125,0.5051085996232927,-0.2487269235432148,-0.3475280740350485
1615357265021950700,3.05395068359375,0.23506898506879806,0.3916711671441793,0.004612462231516838
1615357265031882800,3.0638828125,-0.2005507024604827,0.25542145274579525,0.09375088136494159
1615357265041814800,3.073814697265625,-0.7536510334450751,-0.5841641622900963,0.1249473991394043
1615357265051747800,3.083747802734375,-1.4414720426298677,-1.4252292022287845,0.7092980239123106
1615357265061679900,3.093679931640625,-1.0440052678842098,-2.0394442193895577,0.5440250441253185
1615357265071611600,3.103611572265625,-0.8300117310047149,-1.2880536051571367,0.5050830267906189
1615357265081543700,3.113543701171875,-0.9913280821204185,0.9282803820550442,1.3831623308718204
1615357265091475700,3.123475830078125,-0.912860694605112,1.6644751807212828,1.3307102591007947
1615357265101408800,3.13340869140625,-0.8811923215351998,1.1497680010169744,0.0974348305746913
1615357265111340800,3.1433408203125,-0.9506113101981579,0.46825814774036406,-0.8167360698461532
1615357265121272800,3.15327294921875,-0.6758196057457476,0.15857377440929413,-1.1800666931688786
1615357265131204900,3.163204833984375,0.2769720441661775,-0.5594453160971403,-1.7919681726902723
1615357265141138000,3.173137939453125,0.7296456692837179,-0.7693395278990268,-1.915808779631555
1615357265151069700,3.183069580078125,0.13765022884607314,-0.4230494712263346,-1.800866349416971
1615357265161001700,3.193001708984375,-0.4678386071540415,-0.6607675094991922,-1.509173852111399
1615357265170933800,3.202933837890625,-0.3260685218989849,-1.4352251110643148,-1.6018077121451497
1615357265180865800,3.21286572265625,-0.0117978436909616,-1.9820003306806087,-1.5122522366434334
1615357265190798800,3.222798828125,-0.03425882795453072,-2.3432553167730568,-1.2369263522490859
1615357265200731000,3.23273095703125,-0.16020444435104728,-2.459492170712352,-0.8661153100430965
1615357265210663000,3.242662841796875,-0.42524668900966645,-2.5670436138927935,-0.6382078871667385
1615357265220598300,3.252598388671875,-0.5707539149664342,-2.0705869611501693,-0.5343094135358929
1615357265230531300,3.26253125,0.0888416281439364,-0.35906127544045446,-0.29224574727416036
1615357265240463400,3.27246337890625,0.956712695813179,1.6459358999460936,-0.1877536916643381
1615357265250395400,3.2823955078125,1.550941155999899,2.7601719843328,-0.39333910035639996
1615357265260327400,3.292327392578125,1.4425146835505962,3.230941822633147,-0.607529255786538
1615357265270259500,3.302259521484375,1.0747675589598715,2.757155851382017,-0.8040843858048319
1615357265280192300,3.312192138671875,0.4655844715517014,1.9830670831292867,-0.6384811511501669
1615357265290124500,3.32212451171875,-0.2579131234310567,1.5966870081305502,-0.1652279716014862
1615357265300056300,3.332056396484375,-0.4074808037597686,1.2484744589626788,0.2891074492484331
1615357265309988400,3.34198828125,0.26996837594918904,1.5155156223535537,0.7935019092530011
1615357265319921200,3.351921142578125,0.6608792993105947,1.6047674387335777,1.338669693672657
1615357265329853200,3.361853271484375,0.5772879929102956,1.2399778487741946,1.6054577590852974
1615357265339785200,3.37178515625,0.2672949920214712,0.9508908577919005,1.6120897444456814
1615357265349717500,3.381717529296875,0.08892097699046135,0.7311211486637592,1.3692621080741285
1615357265359649500,3.3916494140625,-0.201181913036108,0.6002987200111151,1.0250646397665142
1615357265369582300,3.401582275390625,-0.39512649522982535,0.8654992239713668,0.6462149602726102
1615357265379514000,3.41151416015625,-0.10855506726503372,1.0749585514873266,0.3478232575893402
1615357265389446100,3.421446044921875,0.2466612231850624,0.775975020390749,-0.04703823002874851
1615357265399378200,3.431378173828125,0.022919249425083398,0.11887363218367099,-0.5525543875396252
1615357265409310500,3.441310546875,-0.25821838998794555,-0.5482587361723185,-0.6139928988426924
1615357265419243300,3.4512431640625,-0.3595067541856318,-1.4107272141456604,-0.5062196296051145
1615357265429175300,3.46117529296875,-0.08314955398216843,-2.194320892846584,-0.18576807080507277
1615357265439107300,3.471107421875,0.00594334550909698,-2.9848008239299055,0.14535159700363873
1615357265449039000,3.4810390625,0.2261783340614289,-3.6133980021864174,0.2217807566896081
1615357265458972200,3.49097216796875,0.9018504941605031,-3.854198808905482,0.02189239059537649
1615357265468904200,3.500904296875,2.0094928793705997,-3.052636342793703,-0.28090719165802003
1615357265478836200,3.510836181640625,2.7694565300285814,-0.8720067061692476,-0.11190730030238628
1615357265488768300,3.520768310546875,4.486797039496898,1.9514958868235348,0.36052959442734717
1615357265498700300,3.5307001953125,5.810748471987247,4.34693731790781,1.128026709330082
1615357265508633300,3.54063330078125,4.6510558738052845,5.532984254530072,1.6195938364654778
1615357265518565400,3.5505654296875,0.8190542836606503,4.179808481121063,0.9796642400726675
1615357265528497200,3.5604970703125,-2.198997067964077,0.9858324073135852,0.29926000995039936
1615357265538429200,3.57042919921875,-3.4121734190523623,-0.6678244422733783,0.05645867706388235
1615357265548362200,3.5803623046875,-3.3115327781736847,-0.5181809932947159,0.16341186209022998
1615357265558294300,3.590294189453125,-3.316106077438593,-0.8917167842894792,0.18773118757158516
1615357265568226300,3.600226318359375,-3.356473451401293,-1.0265636461526155,0.2912245875328779
1615357265578158300,3.610158447265625,-3.463443003040552,-0.9344102631121873,0.23732845443338155
1615357265588090400,3.62009033203125,-3.2270097438812253,-0.8765636388212442,-0.07278992640078068
1615357265598023400,3.6300234375,-2.5910347303330896,-1.0267273122817278,-0.5727443581312894
1615357265607955200,3.639955078125,-1.965344963955879,-1.363285664013028,-1.0676403374284504
1615357265617887200,3.64988720703125,-0.7630863127231597,-2.354107550176978,-1.933615654478967
1615357265627819300,3.6598193359375,0.9781213945448398,-2.7784306946009396,-2.5156924891009926
1615357265637752300,3.66975244140625,1.3311480659961699,-1.44528648635149,-2.0247125142037867
1615357265647684400,3.679684326171875,1.5246272957004605,-0.9274994608104229,-1.8775231803789734
1615357265657616400,3.689616455078125,1.736249792599678,-1.2242711610764265,-1.8192273510158061
1615357265667548400,3.69954833984375,2.2202514529168607,-2.070158506605029,-1.5721955409526824
1615357265677480200,3.709480224609375,1.7217092260718345,-2.363953236886859,-1.1155474592462182
1615357265687413200,3.719413330078125,0.6383037487566471,-1.62997786783576,-0.2226362044751644
1615357265697345300,3.72934521484375,-0.39603783792108294,0.08421908290982245,0.7743357287511229
1615357265707277300,3.73927734375,-1.4779378791093825,2.3458406570911405,1.512491890618205
1615357265717209300,3.749209228515625,-2.831233479505777,5.615024239835143,1.8736112676322458
1615357265727142400,3.759142333984375,-3.6176737798094747,9.2216359428823,2.0442735392421483
1615357265737074400,3.769074462890625,-2.3526970988571643,6.0954077096551655,1.5288409678727388
1615357265747006500,3.77900634765625,-0.8674937587894499,2.3900971474468706,1.3468570917814968
1615357265756938200,3.788938232421875,-0.1885901424884796,-0.6264157425642013,0.7742749384745955
1615357265766870300,3.798870361328125,0.16281024293527005,-2.294399223667383,0.44986938135176896
1615357265776803300,3.80880322265625,0.35977570732012387,-2.027147632396221,0.36870822470784187
1615357265786735400,3.8187353515625,0.2542472943998873,-1.2013631636977196,0.4310983376473188
1615357265796667400,3.82866748046875,-0.20350129589438437,-0.3486573703259229,0.45811493938863274
1615357265806599400,3.838599365234375,-0.5895791730761528,0.27209844678044315,0.20510054778456688
1615357265816531500,3.848531494140625,-0.5056910026211291,0.6446200922966003,0.15267974793463945
1615357265826464500,3.858464599609375,0.2219591819964349,0.7752081276714802,0.03900748378634453
1615357265836396300,3.868396240234375,0.9962884810067713,1.202632160720229,-0.15682488491535185
1615357265846328300,3.878328369140625,1.2532150776185094,1.4138111516356466,-0.35523002671450377
1615357265856260400,3.88826025390625,1.1276593373224137,1.3223475044250488,-0.31358634920567274
1615357265866193400,3.898193359375,0.9734706461295485,1.1663795285999774,-0.1936363199621439
1615357265876125400,3.90812548828125,1.1535317374646663,1.0079530537068844,-0.05108516733199358
1615357265886057500,3.918057373046875,1.6363878810085355,0.7235358081012964,-0.031246786656975743
1615357265895989500,3.927989501953125,1.6684405772209165,0.3107885351806879,0.10550912369787692
1615357265905921300,3.93792138671875,0.5482816786564886,-1.3005331475019455,0.06354395914971828
1615357265915854300,3.947854248046875,-0.5939725857295095,-2.136857130393386,-0.4246703504264355
1615357265925786400,3.957786376953125,-0.6872903363741933,-1.1102467224895953,-0.9612377720221876
1615357265935718400,3.967718505859375,-0.15253931655064223,0.023646833047270773,-1.1596490513011812
1615357265945650400,3.977650390625,0.5377648146867752,0.7285387309551239,-1.103760867601633
1615357265955582500,3.98758251953125,0.5598175104103982,1.021174938851595,-0.5794651908189058
1615357265965515300,3.997515380859375,-0.12392448583245276,0.47288405397534367,-0.09325696036815642
1615357265975447300,4.007447265625,-1.0713900453507899,-0.24671441467702387,0.16456863090991972
1615357265985379300,4.01737939453125,-1.5418765366651117,-0.5977566343128681,0.5823036291152238
1615357265995311400,4.027311279296875,-2.042803320559114,-1.0686012914150953,1.1256938824683427
1615357266005244200,4.037244140625,-1.8639678254961967,-0.44841187601983545,1.5641069270431995
1615357266015176200,4.04717626953125,-0.04750044071301818,0.7021814699053764,1.2881845380604267
1615357266025108200,4.057108154296875,0.8138755658484995,0.19541677363812923,0.6703150900453329
1615357266035040300,4.067040283203125,0.8701262992501259,-0.14408990650475023,0.253996972900629
1615357266044972500,4.07697265625,0.37417365050688384,0.4070861784189939,0.36645898447632785
1615357266054905300,4.0869052734375,-0.5193744408629835,0.8126806569755077,0.5978653553843498
1615357266064837000,4.096837158203125,-1.0583762499988079,0.7296896545559167,0.5227759198695421
1615357266074769200,4.10676904296875,-0.9628570437870919,0.9994254638582467,0.37408290348351
1615357266084701200,4.116701171875,-1.0890344231128692,2.1468524547070262,0.8930103312313556
1615357266094634200,4.12663427734375,1.4216858305335045,8.724818055611848,3.357541665154695
1615357266104566300,4.136566162109375,3.076012542206049,4.760429856237769,1.6445850698590279
1615357266114498300,4.146498291015625,3.3802550167441368,-3.9207618236154316,1.3061895658284426
1615357266124430300,4.156430419921875,2.096277867245674,-11.189656848049163,3.76884107735455
1615357266134362000,4.166362060546875,0.3250853560805321,-5.554251498964429,2.82936359398067
1615357266144295200,4.176295166015625,0.16764080489687622,2.951232316327095,0.8264847259223461
1615357266154227200,4.186227294921875,0.4807387860637158,1.471250948691368,-0.2661287247210741
1615357266164159200,4.1961591796875,1.5712684892356394,-1.1420312692850827,-0.8857581681460142
1615357266174091300,4.20609130859375,1.8881179318904875,-0.951744259750843,-1.4171771209374069
1615357266184024300,4.2160244140625,1.255195291650295,-0.24845044468939304,-2.0058950010091063
1615357266193956400,4.225956298828125,0.5589408737063407,-0.30730887637138365,-2.522453946059942
1615357266203888400,4.235888427734375,0.07516016266345978,-0.6405646794259547,-2.7155057441323995
1615357266213820200,4.245820068359375,-0.4698234973609447,-0.9903653745681047,-2.516898357759416
1615357266223749000,4.2557490234375,-0.9256032718002796,-1.278267539680004,-2.009196965163946
1615357266233682200,4.26568212890625,-1.0364309601724147,-0.7406886029541492,-1.5022332391932607
1615357266243614000,4.275614013671875,-0.8243348544120788,0.27290976316332816,-0.9949942034125328
1615357266253546000,4.2855458984375,-0.3890460793375969,1.1058896963238716,-0.5259770539984107
1615357266263478000,4.29547802734375,-0.3077858462333679,1.2441560112416743,-0.17698475262969732
1615357266273410000,4.30541015625,-0.18325477280989289,1.3934487470865249,-0.057221185868978494
1615357266283343000,4.315343017578125,-0.26427060269899666,1.4286322886705398,0.05143558820486068
1615357266293275100,4.325275146484375,-0.3710043728210032,1.1534843911916017,0.21967793919146059
1615357266303207200,4.335207275390625,-0.6215035667337477,0.888147693631053,0.4056359796106815
1615357266313139000,4.345138916015625,-0.6517723021388053,0.6840928555071354,0.43431671517193315
1615357266323072000,4.355072021484375,-0.5867839893996715,0.4795499416053295,0.395838223695755
1615357266333004000,4.365004150390625,-0.7426561036348343,0.44161564000844955,0.5228758731126785
1615357266342936000,4.37493603515625,-0.8666367035686969,0.5530798727184534,0.7065206681534647
1615357266352868000,4.3848681640625,-0.6958920143723487,0.7586877855032682,0.7847597998708487
1615357266362800000,4.394800048828125,-0.06405775389075279,0.8013976309388875,0.6587742898553609
1615357266372733200,4.404733154296875,0.5874373387418687,0.8682020531892776,0.3840168529987335
1615357266382665200,4.414665283203125,0.7906338064707815,0.8701046719402075,0.011458967125415801
1615357266392597000,4.424596923828125,0.8321766539536416,0.8884165737003088,-0.40276802295893427
1615357266402529000,4.434529052734375,0.7668658312618732,0.9730752170711755,-0.7147296935722232
1615357266412461000,4.4444609375,0.8063292421221733,1.0485673881679773,-0.8813891592815518
1615357266422394000,4.45439404296875,1.0790569267168642,0.6745306619137525,-0.8026923469245434
1615357266432326100,4.464326171875,1.439744195923954,0.46153789957463737,-0.6420107865810394
1615357266442258200,4.474258056640625,1.5679612643837928,0.7273305242091417,-0.4707654543861747
1615357266452190200,4.484190185546875,1.302905283460766,1.0509469767808914,-0.2370215804412961
1615357266462123300,4.494123291015625,0.8062098535262048,1.2151584648162126,0.08920973080396652
1615357266472055000,4.504054931640625,0.5930114856123924,1.2886194223463534,0.44648470734953877
1615357266481987000,4.513987060546875,0.5137490021966398,1.2307096696913242,0.7933172003358602
1615357266491919000,4.523919189453125,0.3918773572407663,0.9929138900071381,1.264143737259507
1615357266501851100,4.53385107421875,0.528019519611448,0.9193839588940143,2.0511995391130444
1615357266511784200,4.5437841796875,0.4647567885559052,0.7297814244925975,2.692447524628043
1615357266521716200,4.55371630859375,0.1366892748594284,0.18782091168165205,2.8288661658525465
1615357266531648300,4.563648193359375,-0.40803602648973464,-0.1209820026397705,2.702942030635476
1615357266541580000,4.573580078125,-0.7471196589149535,0.34247429777681826,2.2473498877227307
1615357266551512000,4.583511962890625,-1.1111106458425521,1.4386311201155184,1.8552748159527777
1615357266561445000,4.593445068359375,-1.5998470795966684,1.8845149389624594,1.6899200031012296
1615357266571377200,4.603377197265625,-1.6110321982167661,0.33449265137314793,0.9938818582564591
1615357266581309200,4.61330908203125,-1.0816694473028183,-0.20545126091837881,0.22973230021595953
1615357266591241200,4.6232412109375,-0.498713784019649,-0.3459674005895853,-0.3494344921782613
1615357266601174000,4.633174072265625,-0.3542399927638471,-0.9732716164261103,-0.6196671450868249
1615357266611106000,4.64310595703125,-0.4054501016497612,-1.2801093681544065,-0.7533683440461755
1615357266621038000,4.6530380859375,-0.562657263880968,-1.139800149232149,-0.9491022208094596
1615357266630970000,4.66297021484375,-0.7073102110959589,-0.7630202617496251,-1.204510521812737
1615357266640902100,4.672902099609375,-0.6663035163164138,-0.43463820221126076,-1.4792989383295179
1615357266650835000,4.6828349609375,-0.378130863700062,-0.3711947808265686,-1.7158523167371749
1615357266660767000,4.69276708984375,-0.005509849462658167,-0.594008095434308,-1.9322239078596233
1615357266670699000,4.702698974609375,0.12624138447269798,-0.9387129287421703,-2.1151772135049103
1615357266680631000,4.712631103515625,0.04653247246369719,-1.3217512920975685,-2.1656275900647044
1615357266690563000,4.72256298828125,-0.02271948906928301,-1.8262036197692155,-2.105541662414372
1615357266700496000,4.732495849609375,0.08075184519067406,-2.3024697173982855,-1.956436265835166
1615357266710428000,4.742427978515625,0.2668739901304245,-2.559592128843069,-1.800547784987092
1615357266720360000,4.75235986328125,0.47518115193657573,-2.706946005579829,-1.5907617097347975
1615357266730292000,4.7622919921875,0.6532232315994799,-2.6626684724360703,-1.3702806374669074
1615357266740225000,4.77222509765625,0.6529647998590022,-2.101176745203137,-1.276287179517746
1615357266750157000,4.782156982421875,0.5970494358915835,-1.2813333569914103,-1.1987693478122352
1615357266760089000,4.792089111328125,0.4955705175578594,-0.7065653840780258,-1.0734633444935082
1615357266770020900,4.802020751953125,0.03345916547682136,0.11792962933182716,-0.9775903564080596
1615357266779953000,4.811952880859375,-1.0991536660671233,1.4400520928293465,-1.231487668326497
1615357266789886000,4.821885986328125,-0.4748959783196449,0.17330314150750636,-1.0755717149496078
1615357266799818000,4.83181787109375,0.08436872051358223,-0.3941179757744074,-0.8198515715181827
1615357266809750000,4.84175,0.6286158829569817,-0.4452782541692257,-0.39459845276772976
1615357266819682000,4.85168212890625,1.6663257770240305,-0.6999532724618911,0.10607961706221103
1615357266829614000,4.861614013671875,2.004448893854022,-0.4081172750324011,0.3150409319281578
1615357266839547100,4.871547119140625,1.4373650457024574,-0.14713585007190705,0.4205576544106006
1615357266849479000,4.88147900390625,0.6078998426645994,-0.02016483615040779,0.4723772734969854
1615357266859411000,4.891410888671875,-0.2186316450089216,0.20232289976477622,0.41082361138164997
1615357266869343000,4.901343017578125,-1.1911042200118303,0.4977525377720594,0.4791261632353067
1615357266879275000,4.91127490234375,-1.6039409247815608,0.7875047146648169,0.4814665888816118
1615357266889208000,4.9212080078125,-1.1131348451465368,1.0600672718256712,0.19951602565050125
1615357266899140000,4.93114013671875,-0.3656816434282809,1.1344973666489124,-0.09209668441712855
1615357266909072100,4.941072021484375,0.2728437852550298,1.466519243994355,-0.09276654650270938
1615357266919004000,4.95100390625,0.640551235422492,1.7255524574965238,0.04203063099980354
1615357266928937000,4.96093701171875,0.8506792559802532,1.4991478403985499,0.2821984005123377
1615357266938869000,4.970868896484375,0.911234554708004,0.9792857621490955,0.5393476999640464
1615357266948801000,4.980801025390625,0.714075321316719,0.44357437286078927,0.6596224311172961
1615357266958733000,4.990733154296875,0.3136064786782488,0.1885948186635971,0.679643474882841
1615357266968665000,5.0006650390625,-0.2257388466656208,0.10560498528778553,0.6108803197801113
1615357266978598100,5.01059814453125,-0.6857523131519556,0.038898178192973136,0.5236679002732039
1615357266988530200,5.0205302734375,-0.9180945036053657,0.0014525368958711623,0.3929547772139311
1615357266998462000,5.0304619140625,-0.9443623328059911,-0.0352396556854248,0.22389000392854214
1615357267008394000,5.04039404296875,-0.8146744611412287,-0.08604045311808585,0.041028175958991046
1615357267018326000,5.050325927734375,-0.6235048235535622,-0.12510697361528872,-0.1553846229791641
1615357267028259000,5.060259033203125,-0.40179567079544065,-0.14710428588986396,-0.34160862085819244
1615357267038191000,5.070191162109375,-0.16706574495527893,-0.1805173106700182,-0.48486792175769805
1615357267048123100,5.080123046875,0.0362853653460741,-0.23312252717614174,-0.5793465328752995
1615357267058055200,5.09005517578125,0.16084000230822712,-0.26627134806215763,-0.6211497848600149
1615357267067988200,5.09998828125,0.2079834462771192,-0.2604869194418192,-0.5794195981115102
1615357267077920000,5.109919921875,0.19604279658198356,-0.24221418064832687,-0.5057178175628185
1615357267087852000,5.11985205078125,0.22252397627234458,-0.22266484604775905,-0.4144949933707714
1615357267097784000,5.1297841796875,0.2782879125377163,-0.21062895581722257,-0.32535306710600853
1615357267107716000,5.139716064453125,0.3071481328517198,-0.21488836682736873,-0.2699883227586746
1615357267117649200,5.149649169921875,0.3038029506096616,-0.1881675331622362,-0.24838380919396877
1615357267127581200,5.159581298828125,0.22288696436583993,-0.1502227101713419,-0.27123218533992766
1615357267137513200,5.16951318359375,0.11216565897762774,-0.11983692425787448,-0.2740840676397085
1615357267147445000,5.179445068359375,0.01795885053873062,-0.10248539196252822,-0.21872458398938177
1615357267157377000,5.189376953125,-0.04708265369236469,-0.07043430318534374,-0.13746318184137343
1615357267167310000,5.19931005859375,-0.08527940561771392,-0.03296235840320587,-0.04765022444725037
1615357267177242000,5.2092421875,-0.10972056738045066,-0.03520283080637455,0.05151625222563743
1615357267187174100,5.219174072265625,-0.14981646745800972,-0.03662438804209232,0.13829554101228714
1615357267197106200,5.229106201171875,-0.18959497214946894,-0.012929624199867248,0.20139643256962297
1615357267207038200,5.2390380859375,-0.18159871269855649,0.03341945452094078,0.1612584834486246
1615357267216971300,5.24897119140625,-0.1780763837913051,0.09085574444532393,0.06773615014255047
1615357267226902800,5.25890283203125,-0.1397954241812229,0.09386486313343048,-0.012358546313643455
1615357267236834800,5.268834716796875,-0.05234736928753554,0.038923897156119346,-0.034058336946368215
1615357267246766800,5.278766845703125,0.030116942376829683,-0.04592880748212337,-0.023975334349274634
1615357267256700000,5.288699951171875,0.07432195827364921,-0.10617314056456088,-0.002503507253527641
1615357267266631700,5.298631591796875,0.10939557320978492,-0.11005085878074168,0.011308744999766349
1615357267276563700,5.308563720703125,0.11239709311332553,-0.09327858767807483,-0.01765080750286579
1615357267286495700,5.318495849609375,0.09630988166537136,-0.07849369100034237,-0.07060790618658065
1615357267296427800,5.328427734375,0.09722527947723865,-0.0738520026743412,-0.11743629285693168
1615357267306360800,5.33836083984375,0.09451952764987945,-0.06092413204014301,-0.16458499752283096
1615357267316292900,5.34829296875,0.08444003218412399,-0.033249358651041984,-0.19101473928689955
1615357267326225000,5.358224853515625,0.08325169918239116,-0.04376081579327583,-0.18516718230247498
1615357267336156700,5.36815673828125,0.08224928067419678,-0.05866904658973217,-0.1675415092408657
1615357267346088700,5.378088623046875,0.06359368004295975,-0.05653086551725864,-0.16162673223912716
1615357267356021800,5.388021728515625,0.029441746529005466,-0.04864332713782787,-0.11038403625786304
1615357267365953800,5.397953857421875,-0.011520305391214788,-0.009367547804117202,-0.0806879861742258
1615357267375885800,5.4078857421875,-0.03637823126129806,0.03267126650214195,-0.052395373147726056
1615357267385817900,5.41781787109375,-0.028230032651685177,0.09418342756330966,0.011066752937436104
1615357267395750700,5.427750732421875,0.008716390419006348,0.14105331528782844,0.0552168603092432
1615357267405682700,5.4376826171875,0.09851999546289443,0.16533493910729885,0.12424305026233196
1615357267415614700,5.44761474609375,0.15931315806712953,0.1939104607284069,0.17986206163167953
1615357267425546800,5.457546630859375,0.17800916377399115,0.21135843913555144,0.2203098073542118
1615357267435478800,5.467478759765625,0.1204641162455082,0.23937749591767787,0.251872820353508
1615357267445411600,5.47741162109375,0.051304107312299306,0.2425660628259182,0.26891046439409255
1615357267455343600,5.487343505859375,-0.010417349117994308,0.21437048043310641,0.24315642993450162
1615357267465275600,5.497275634765625,-0.05724456674456596,0.2080541368931532,0.19586101027429104
1615357267475207700,5.507207763671875,-0.1048790456334129,0.16272387982606887,0.13834347180724144
1615357267485139700,5.5171396484375,-0.13183306699991226,0.07586743414998054,0.06971066508591174
1615357267495072500,5.527072509765625,-0.12629530661702154,-0.007891630032658576,0.016382395002245902
1615357267505004500,5.537004638671875,-0.1144774430513382,-0.051820203608274454,-0.043861938080191606
1615357267514936600,5.5469365234375,-0.07426230050828307,-0.06137947459220886,-0.10339140089154243
1615357267524868600,5.55686865234375,-0.020371720366738736,-0.06952654069066047,-0.12691899147331714
1615357267534800600,5.566800537109375,0.002775309932231903,-0.08491817108988761,-0.15520400571525095
1615357267544733700,5.576733642578125,-0.038013833106495434,-0.08488076168894768,-0.17534779907763004
1615357267554665700,5.586665771484375,-0.05499532651305198,-0.08263444406688213,-0.1793319002777338
1615357267564597500,5.596597412109375,-0.03204758164584637,-0.07326280460953712,-0.18169804488718508
1615357267574529500,5.606529541015625,0.0010223287850618362,-0.07481412570476531,-0.18522914162278173
1615357267584461600,5.616461669921875,0.026239187628030774,-0.06898293533325195,-0.2050216373294592
1615357267594394600,5.62639453125,0.012661292119883,-0.04906593646407127,-0.18930618180334566
1615357267604326700,5.63632666015625,0.009039046502113342,-0.020934651479125023,-0.155215111631155
1615357267614258700,5.6462587890625,-0.00650751873049885,-0.021421558213233948,-0.0684013360530138
1615357267624190500,5.6561904296875,-0.011959902384877204,-0.019511340677738187,0.03345686392188072
1615357267634123800,5.666123779296875,-0.02309453292675316,-0.025284078860282895,0.1046867013990879
1615357267644055600,5.6760556640625,-0.027075053930282592,-0.012248071676492691,0.1285983228623867
1615357267653987600,5.685987548828125,-0.031001287463307377,0.03177694801092148,0.08501812433302403
1615357267663919600,5.695919677734375,-0.025043255841732025,0.08789514107406139,0.030647651720046996
1615357267673851600,5.7058515625,-0.02320610354244709,0.09537351413071155,-0.013335282391309737
1615357267683784700,5.71578466796875,-0.0006762918263673782,0.07888181353509426,-0.01725508618354797
1615357267693716700,5.725716796875,0.0021650690793991088,0.0479448234796524,-0.005492167675495148
1615357267703648800,5.735648681640625,-0.004756839138269424,0.026961072161793706,-0.005863339075446129
1615357267713580500,5.74558056640625,0.007359094058535993,0.023431144469976423,-0.013939678025245665
1615357267723512600,5.7555126953125,0.026015315744280815,0.024940964511036872,-0.01650806720852852
1615357267733445600,5.765445556640625,0.058661411272548133,0.029367548781633376,-0.0017523966252803802
1615357267743377700,5.775377685546875,0.10473229410648345,0.04424012374281883,0.013598317241668701
1615357267753309700,5.785309814453125,0.13873393242955206,0.0519447067707777,0.017415245181322096
1615357267763241700,5.79524169921875,0.14207973572611807,0.049400867506861686,0.004868482819199562
1615357267773173500,5.805173583984375,0.12718323190007358,0.04569032255113124,-0.015537176349759102
1615357267783106800,5.81510693359375,0.0907569237133488,0.054825815165042875,-0.040485739645361896
1615357267793038600,5.82503857421875,0.029019794789887962,0.04659457791447639,-0.05194821390211582
1615357267802970600,5.834970703125,0.0013245631346479058,0.018639818540215493,-0.061304655790328975
1615357267812902700,5.844902587890625,-0.033951953962445255,0.002279050847887993,-0.07935995244085789
1615357267822835700,5.854835693359375,-0.05491875414550304,-0.01873568013012409,-0.10353928492963313
1615357267832767700,5.864767822265625,-0.06881576207280159,-0.03551145836412906,-0.11062836640775203
1615357267842699800,5.87469970703125,-0.05330602171923965,-0.0401326884239912,-0.11435703154206275
1615357267852631600,5.884631591796875,-0.03724167969021946,-0.03978548242151737,-0.08795008613169193
1615357267862563600,5.8945634765625,-0.04743921204507351,-0.03299450710713863,-0.07128712062239646
1615357267872496600,5.90449658203125,-0.07088146243095397,-0.03838905962705612,-0.04151566721498966
1615357267882428700,5.9144287109375,-0.09444938502311706,-0.05742810661792755,-0.03189034525752067
1615357267892360700,5.924360595703125,-0.08641396260559558,-0.08296119180321693,-0.021156769797205925
1615357267902292700,5.934292724609375,-0.05029460147619247,-0.07852876231372356,-0.03535071484446525
1615357267912224800,5.944224853515625,-0.008768449399806559,-0.07372340785861015,-0.0652466714143753
1615357267922157800,5.95415771484375,0.0008370353460311889,-0.06254384219646454,-0.09170914640426635
1615357267932089900,5.96408984375,0.0015081030080094932,-0.06731821699142455,-0.11079320158064365
1615357267942021600,5.974021728515625,-0.017293664628267286,-0.06283434957563877,-0.1362888773649931
1615357267951953700,5.98395361328125,-0.02999068564865738,-0.04037058883309364,-0.14263444699943065
1615357267961885700,5.9938857421875,-0.026026458192802963,-0.026143326038122177,-0.15339081881344319
1615357267971818800,6.00381884765625,-0.041366066143848,-0.039080549022555346,-0.12766717949211598
1615357267981750800,6.013750732421875,-0.047171537552215155,-0.04952420162558555,-0.10338497115075587
1615357267991682800,6.023682861328125,-0.037615189177729186,-0.047511108237504956,-0.0765624306768179
1615357268001614600,6.033614501953125,-0.025016988889314234,-0.0398538714826107,-0.04721475563943386
1615357268011546600,6.043546630859375,-0.005872070371173322,-0.024107436296343803,-0.013077508237957954
1615357268021479700,6.053479736328125,0.0204821950038895,-0.00005962123274803161,0.011014730489253997
1615357268031411700,6.06341162109375,0.014485584937594831,0.003989361897110939,0.00843698895573616
1615357268041343700,6.07334375,-0.007435081904195249,0.02916121255457401,-0.007925532302260398
1615357268051275800,6.08327587890625,-0.009486169215105474,0.05888765777647495,-0.030668109986186024
1615357268061208800,6.093208740234375,-0.011025872937776147,0.08610767313539981,-0.041019992652535434
1615357268071140900,6.103140869140625,0.019558686950802803,0.08016776169240475,-0.03166939598321915
1615357268081072600,6.11307275390625,0.05373392827510833,0.06172668059468269,-0.02888414917886257
1615357268091004700,6.123004638671875,0.08183598716557025,0.05465338120758533,-0.02668985400497913
1615357268100936700,6.132936767578125,0.0999900680154562,0.05184709161520004,-0.039651626908779145
1615357268110869800,6.142869873046875,0.12162380767464637,0.045916532522439955,-0.03780804486870765
1615357268120801800,6.1528017578125,0.13957973560392856,0.05068623114228248,-0.04277180475592613
1615357268130733800,6.16273388671875,0.13961835058126598,0.050658174091577524,-0.04245324032604694
1615357268140665900,6.172665771484375,0.11285481028556824,0.05742810661792755,-0.04668693237304687
1615357268150597600,6.18259765625,0.07552022814750671,0.039139001211524006,-0.05151683674752712
1615357268160530700,6.19253076171875,0.040676878303289414,0.02023322521150112,-0.05066986452937126
1615357268170462700,6.202462646484375,0.009137830701470374,0.018285013753175733,-0.04603694403171539
1615357268180394800,6.212394775390625,-0.027249241453409193,0.018368600383400917,-0.06010463235080242
1615357268190326800,6.222326904296875,-0.08526658266875893,-0.0009165303230285644,-0.07126900044381618
1615357268200258800,6.2322587890625,-0.10894666039850562,-0.008238251513242721,-0.053556233620643615
1615357268210191600,6.242191650390625,-0.10206976036634295,-0.032177930027246476,-0.0058364510685205455
1615357268220127500,6.25212744140625,-0.09589435966704041,-0.05998597440719604,0.020967969226837156
1615357268230059500,6.2620595703125,-0.06206515530142933,-0.06630757864415646,0.023786533778905865
1615357268239991600,6.271991455078125,-0.05167173504829407,-0.05438157852888107,0.030533085429668424
1615357268249923600,6.281923583984375,-0.025542474068142473,-0.030317981374263763,-0.0012649053692817688
1615357268259856600,6.291856689453125,-0.016710311782360075,-0.02090016468763351,-0.02206102516055107
1615357268269788700,6.30178857421875,-0.0025794585665687916,-0.02204407402575016,-0.05437281070053577
1615357268279720700,6.311720703125,0.004922843354940414,0.006111760878562927,-0.07532616688013076
1615357268289652500,6.321652587890625,0.0013169643500819802,0.03815525087118148,-0.08928571864962577
1615357268299585500,6.33158544921875,0.01985854668021202,0.04116670764684677,-0.08476385731101035
1615357268309517600,6.341517578125,0.02054890356454998,0.013524082961678504,-0.07808920185267924
1615357268319449600,6.35144970703125,0.05369538636300712,0.0034001638323068618,-0.05237666844725609
1615357268329381600,6.361381591796875,0.08439151686728,0.00627893413901329,-0.03232873667478561
1615357268339313700,6.371313720703125,0.097959438970685,0.004361702340841293,-0.021582886254787444
1615357268349246700,6.381246826171875,0.0830535462617874,0.0024187515795230864,-0.010361819538474083
1615357268359178800,6.3911787109375,0.04288107381667942,0.015979659420251844,-0.025919454154372214
1615357268369110500,6.401110595703125,0.012328151175379753,0.0038689503878355023,-0.027815058642625807
1615357268379042600,6.41104248046875,-0.0192494748711586,-0.0027291327029466627,-0.037509938704967494
1615357268388974600,6.420974609375,-0.044003392377495766,0.007857143241167068,-0.034276948133110996
1615357268398907600,6.43090771484375,-0.06475563649442047,0.016072013878822327,-0.02354278815090656
1615357268408839700,6.440839599609375,-0.07483812763486057,0.0025531916141510007,-0.020326748713850974
1615357268418771700,6.450771728515625,-0.0788233613461256,-0.009743979901075362,-0.0025040917754173275
1615357268428703700,6.460703857421875,-0.0373135393500328,-0.019102759876847265,0.008542787417769431
1615357268438635500,6.470635498046875,-0.003508336914516985,-0.009919920989871024,0.014689619609713553
1615357268448568600,6.480568603515625,0.020526034145615994,-0.003991699984669685,0.01445931798517704
1615357268458500600,6.49050048828125,0.02000464062001556,-0.02275952881872654,0.01666881072819233
1615357268468432600,6.5004326171875,0.01937869074139744,-0.019445289704203606,0.011146247914433478
1615357268478364700,6.51036474609375,-0.007465513575077056,-0.005821253499388695,0.007374328160285949
1615357268488297700,6.520297607421875,-0.012499416089057922,0.004201543343067169,-0.004425999748706817
1615357268498229800,6.530229736328125,-0.022590054003335535,0.02048106249272823,-0.02834989617168903
1615357268508161800,6.540161865234375,-0.047477205967903134,0.03532148874998092,-0.04495850114524364
1615357268518093600,6.550093505859375,-0.057831390189193185,0.03194412127137184,-0.05071721080243587
1615357268528025600,6.560025634765625,-0.04415595259070396,0.04179097702503204,-0.04640168569087982
1615357268537958700,6.569958740234375,-0.023724537925980983,0.05003215114772319,-0.04381225371956825
1615357268547890700,6.579890625,-0.006641337710618972,0.06191022046804428,-0.04492284530997276
1615357268557822700,6.58982275390625,0.013324797529913484,0.07050093868076801,-0.03407119642794132
1615357268567754800,6.599754638671875,0.030570494830608367,0.08198270215988158,-0.022366730108857154
1615357268577686800,6.609686767578125,0.050219819206930694,0.08954407732486724,-0.008946107521653176
1615357268587619800,6.619619873046875,0.08048110195789486,0.09348784651458263,0.005699672946333885
1615357268597551600,6.629551513671875,0.10331954123172908,0.0977373206526041,0.021019991675019264
1615357268607483600,6.639483642578125,0.11580781487226485,0.08859715186357497,0.023563246417045592
1615357268617415700,6.649415771484375,0.10841423402223735,0.06174889242649078,0.034382162073254584
1615357268627347700,6.65934765625,0.0884650499165058,0.05692191066145896,0.0286345583319664
1615357268637280800,6.66928076171875,0.0593430368611589,0.02647591899335384,0.01926642600595951
1615357268647212800,6.679212890625,0.01300214144680649,0.012305939343571663,-0.016743045008182526
1615357268657144800,6.689144775390625,-0.0558136206259951,-0.006261398482322693,-0.002616319978237152
1615357268667076600,6.69907666015625,-0.13338438809514044,-0.028811083942651746,-0.009521861582994461
1615357268677008600,6.709008544921875,-0.13064878911878913,-0.03497486726939678,-0.05990823299586773
1615357268686941700,6.718941650390625,-0.10217906595971435,-0.03686579558253288,-0.10038578933477402
1615357268696873700,6.728873779296875,-0.06998363680839538,-0.035869185760617255,-0.12731880444586277
1615357268706805800,6.7388056640625,-0.0684702731033787,-0.025509119787812232,-0.13131576512753962
1615357268716737800,6.74873779296875,-0.08695928499605506,-0.030541853258013722,-0.13353227213323116
1615357268726669800,6.758669921875,-0.09095164256785064,-0.0271487036883831,-0.10917524498999118
1615357268736603000,6.768602783203125,-0.11205748589541763,-0.03523381046652794,-0.06346095704138278
1615357268746534700,6.77853466796875,-0.11840773170497268,-0.0352834948271513,-0.021919570863246918
1615357268756466700,6.788466796875,-0.10166125263068825,-0.018338205245137212,0.012305939343571663
1615357268766398700,6.798398681640625,-0.04941084091160446,0.002966448590159416,0.03804594527781009
1615357268776331800,6.808331787109375,-0.009756218328140675,0.015629530808329583,0.050207507714629174
1615357268786263800,6.818263916015625,0.014613010709546506,0.009615385085344314,0.048937926170229906
1615357268796195800,6.82819580078125,0.031633740147948265,0.008018471282720565,0.02906710453033447
1615357268806127900,6.8381279296875,0.04782207388281822,0.005614332750439643,-0.017414076137542724
1615357268816059600,6.8480595703125,0.04504442586302757,0.00982815105319023,-0.0686497578561306
1615357268825992700,6.85799267578125,0.032823242193460465,0.017819734328985214,-0.11865911265015601
1615357268835924700,6.8679248046875,-0.014863807132840155,0.03871697640717029,-0.14327099133729934
1615357268845856800,6.877856689453125,-0.06577621171381325,0.0490600912451744,-0.1440086579620838
1615357268855788800,6.887788818359375,-0.010072481203079223,0.033843232890963554,-0.20141922892332076
1615357268865720800,6.897720947265625,0.060564103088714176,-0.010718962413072585,-0.14362930325567722
1615357268875653600,6.907653564453125,0.0857119883487001,-0.042726796570420264,-0.08797171344161032
1615357268885585700,6.917585693359375,0.09705518360733985,-0.04144552458822727,-0.03289046221077442
1615357268895517700,6.927517578125,0.06793839471638202,-0.02314414422214031,-0.012236965760588645
1615357268905449700,6.93744970703125,-0.008912753241322935,-0.003658522507548332,-0.008121347135305405
1615357268915381800,6.9473818359375,-0.07710541497971862,0.0338847339451313,-0.0292968216329813
1615357268925314600,6.957314453125,-0.10672317566275596,0.04605740229785442,-0.042944823235273356
1615357268935246600,6.96724658203125,-0.10773085486795753,0.03858779706954956,-0.05214812038838863
1615357268945178600,6.9771787109375,-0.0894412014722824,0.03564122222363949,-0.03725742524862289
1615357268955111000,6.98711083984375,-0.058397207378409796,0.013381459620594978,0.0044137247890233995
1615357268965042700,6.997042724609375,-0.024619440939091145,-0.005690905117988586,0.04325111270546913
1615357268974975500,7.0069755859375,0.0023310367634519933,-0.000834112736582756,0.08157002970576285
1615357268984907500,7.016907470703125,-0.0142214175760746,0.03757774324417114,0.08944003242850303
1615357268994839600,7.026839599609375,-0.061966298036836086,0.08362579319179057,0.09354746774733066
1615357269004771600,7.036771484375,-0.07415241039302199,0.1096580600708723,0.08019348065555096
1615357269014704600,7.04670458984375,-0.027097229229472577,0.12385960390269755,0.06625204906463622
1615357269024636700,7.05663671875,0.04378890937659889,0.12300678646564484,0.05132277548015118
1615357269034568700,7.066568603515625,0.11339490851163864,0.11881693356037139,0.04106967701315879
1615357269044500500,7.07650048828125,0.14143855174575,0.10373802237212658,0.02965630259513855
1615357269054432500,7.0864326171875,0.1415606802880764,0.09057517393827438,0.016589315751194954
1615357269064365600,7.096365478515625,0.12088029583096503,0.07503741306662559,0.013796470162272452
1615357269074297600,7.106297607421875,0.08047050749864429,0.04909223994910717,0.026344986090064047
1615357269084229600,7.116229736328125,0.04115793981850147,0.04911737439036369,0.029654549029469488
1615357269094161700,7.12616162109375,0.0013958382725715636,0.04459609757363796,0.017955927929282186
1615357269104093700,7.13609375,-0.029859679680131375,0.04331716367900371,-0.005974398234486579
1615357269114026800,7.14602685546875,-0.03875259570982307,0.02300385896861553,-0.015978490376472473
1615357269123958500,7.15595849609375,-0.0072451488226652145,-0.008344049975275993,-0.0333750308573246
1615357269133890600,7.165890625,0.004241327364183962,-0.026819617864489553,-0.0593517681568861
1615357269143822600,7.175822509765625,0.022541538686491547,-0.04952127901613712,-0.07241232526004314
1615357269153754600,7.185754638671875,0.03263148248102516,-0.0633253479629755,-0.06999941889941692
1615357269163687700,7.195687744140625,0.015136815387941895,-0.06358136855065823,-0.07764087356328964
1615357269173619700,7.20561962890625,-0.00631579555068165,-0.05206628732383251,-0.06042085869312286
1615357269183551700,7.2155517578125,-0.03310322817862034,-0.03885024739801884,-0.055713119393587106
1615357269193483500,7.2254833984375,-0.0649590501120314,-0.023401333853602407,-0.0663882426649332
1615357269203415600,7.23541552734375,-0.08416176323201507,-0.017371406039595604,-0.07344809804856776
1615357269213348600,7.2453486328125,-0.0736953873405233,-0.012969956210255621,-0.05891980648040771
1615357269223276300,7.2552763671875,-0.04085745903458446,0.014160042777657507,-0.050180619707703586
1615357269233208300,7.265208251953125,-0.0005342164745554327,0.024278701210021972,-0.053736850884556764
1615357269243140400,7.275140380859375,0.018280301045440137,0.03156418204307556,-0.06210194364786148
1615357269253072400,7.285072265625,0.029230770659446716,0.02427519407868385,-0.05183657022118568
1615357269263005400,7.29500537109375,0.04474511412288993,0.0034592005431652068,-0.027625089028477667
1615357269272937500,7.3049375,0.06034720893502235,-0.004101590099930763,-0.015233809489011764
1615357269282869200,7.314869140625,0.06422492715120315,-0.003005611556768417,-0.00007715688943862914
1615357269292801300,7.32480126953125,0.04465860488321632,0.018914543828368185,0.013202595922350882
1615357269302734300,7.334734375,0.034877215581201014,0.05170213018655777,0.03037175738811493
1615357269312666400,7.344666259765625,-0.0013899565210565923,0.06091828682124614,0.0364028542459011
1615357269322598400,7.354598388671875,-0.04228606706559658,0.056342064946889876,0.03696224169433117
1615357269332530400,7.364530517578125,-0.07209785248339176,0.05572714791893959,0.03131459119617939
1615357269342462500,7.37446240234375,-0.079894753437303,0.043209027129411694,0.003288520151376724
1615357269352395500,7.3843955078125,-0.08163662866856902,0.01880114658176899,-0.01846563101708889
1615357269362327300,7.394327392578125,-0.10569383261501789,0.0020148469537496568,0.013421791630983351
1615357269372259300,7.40425927734375,-0.10614742160141467,0.0041512744605541226,-0.0411959337413311
1615357269382191400,7.41419140625,-0.004721183302998542,-0.0033650925189256664,-0.08303250347375869
1615357269392123400,7.424123291015625,0.05076101341154426,-0.002235211706161499,-0.07405950794517993
1615357269402056400,7.434056396484375,0.03297287979722023,-0.007949497699737549,-0.0723176327139139
1615357269411988500,7.443988525390625,0.015768683550693094,-0.04366495420336723,-0.06995031906068325
1615357269421920500,7.45392041015625,-0.010868015494942665,-0.05253916553258896,-0.059120882010459896
1615357269431852300,7.463852294921875,-0.04390807877685875,-0.048156420403718946,-0.05632219120264053
1615357269441784300,7.473784423828125,-0.0630599750250578,-0.0202472537368536,-0.048072249251604075
1615357269451717400,7.48371728515625,-0.0662269146233797,0.012197802793979645,-0.0446422748029232
1615357269461649400,7.4936494140625,-0.07272036829590797,0.05191372711062431,-0.043861353558301924
1615357269471581400,7.50358154296875,-0.06218845288753509,0.07738719106316566,-0.04543488648533821
1615357269481513500,7.513513427734375,-0.0305254866451025,0.059521864026784894,-0.05121756154000759
1615357269491445500,7.523445556640625,0.026155600997805593,0.04052256452441215,-0.034845687931776045
1615357269501378600,7.533378662109375,0.0787181108733639,0.02392155833542347,-0.0064496145308017725
1615357269511310300,7.543310302734375,0.1314601420342922,0.018418284744024276,0.006197101074457168
1615357269521242400,7.553242431640625,0.141891519677639,0.0022679449319839475,0.03508125025331974
1615357269531174400,7.56317431640625,0.11232106873504817,0.016239771661162375,0.014347674304246901
1615357269541106400,7.5731064453125,0.07612929995656013,0.04517418972253799,-0.027899229794740674
1615357269551039500,7.58303955078125,0.049721770024299616,0.058125441232323646,-0.07662965069413184
1615357269560971500,7.592971435546875,0.02436049774195999,0.0458230090200901,-0.10577098950445651
1615357269570903600,7.602903564453125,0.0119429877826944,0.010919453421235084,-0.1123030216217041
1615357269580835300,7.61283544921875,-0.006132767133973539,-0.025039748710393904,-0.1079021563142538
1615357269590767400,7.622767333984375,-0.025247838503122327,-0.043594227054715155,-0.09986030415594577
1615357269600700400,7.632700439453125,-0.06440729798078537,-0.04722469251155853,-0.09243161545991897
1615357269610632400,7.642632568359375,-0.08569324711561202,-0.03483224392831325,-0.07767711392045021
1615357269620564500,7.652564453125,-0.09997899863217026,-0.014167057040333747,-0.08487842360138893
1615357269630496500,7.66249658203125,-0.08318798629641533,0.014751578930020331,-0.08780454018115996
1615357269640429600,7.6724296875,-0.05607201583385467,0.010611410385370255,-0.09944938526749611
1615357269650361600,7.682361572265625,-0.037518122011423106,0.0005582184046506881,-0.08722294090092182
1615357269660293400,7.69229345703125,-0.023279753300547597,-0.01516600494980812,-0.08032090642750263
1615357269670225400,7.702225341796875,0.0036421558946371077,-0.025543022057414055,-0.06509001954793929
1615357269680157400,7.712157470703125,-0.006505144110321998,0.0002618658065795898,-0.050099955686926836
1615357269690090500,7.722090576171875,-0.01637070456445217,0.05226619381010532,-0.036816111221909524
1615357269700022500,7.7320224609375,-0.03372399042546749,0.10369593679606914,-0.024881927800178526
1615357269709954600,7.74195458984375,-0.07205693595111369,0.12219722364842892,-0.003291442760825157
1615357269719886600,7.751886474609375,-0.06028232700526714,0.15319968015551566,0.037975802651047705
1615357269729818400,7.761818359375,-0.03544544392321258,0.15283435397446155,0.08345511280000209
1615357269739751400,7.77175146484375,-0.014908815318346022,0.16146131254434584,0.1480307530850172
1615357269749683500,7.781683349609375,0.007976349174045026,0.1385842948257923,0.22221944036781788
1615357269759615500,7.791615478515625,0.021594576692581177,0.10861059684455394,0.26881343376040456
1615357269769547500,7.801547607421875,-0.011793277113698422,0.07456745746731758,0.2724427301734686
1615357269779479600,7.8114794921875,-0.07288282884862274,0.047367315852642054,0.23815409160256384
1615357269789412600,7.82141259765625,-0.10451956467125564,0.03605038754642009,0.16422493203878402
1615357269799344600,7.8313447265625,-0.06905541604757308,0.030129180803894994,0.07400631645321845
1615357269809276400,7.8412763671875,-0.03083820585608482,0.013359247788786888,-0.006736614778637886
1615357269819208400,7.85120849609375,0.008249978483654559,-0.017699907341599465,-0.09104746762514114
1615357269829140500,7.861140380859375,0.05851181020140647,-0.046454292660951614,-0.1648357574135065
1615357269839073500,7.871073486328125,0.10386248900201171,-0.08816226757764815,-0.2134083574026823
1615357269849005600,7.881005615234375,0.15011570613291114,-0.12630465896725654,-0.23930384615957737
1615357269858937600,7.8909375,0.1787439077893272,-0.15817162334918974,-0.24888065280020236
1615357269868869600,7.90086962890625,0.20654957754909992,-0.1549450625181198,-0.23138006742298603
1615357269878801400,7.910801513671875,0.2146148105829954,-0.14574234988689422,-0.22868483698964118
1615357269888734500,7.920734375,0.18973346730470655,-0.10943185009956359,-0.19491583837866783
1615357269898666500,7.93066650390625,0.14225629786942154,-0.07553308762907981,-0.16614333288073538
1615357269908598500,7.9405986328125,0.06839139918088913,-0.051315176695585246,-0.11545417912900448
1615357269918530600,7.950530517578125,0.020603812089562416,-0.006437924093008041,-0.04712006309330463
1615357269928463400,7.96046337890625,-0.04254091860949993,0.05261690694391727,-0.004215571868419647
1615357269938395400,7.9703955078125,-0.0732808882554993,0.08294833232164382,0.07391162390708923
1615357269948327400,7.980327392578125,-0.07693064293470234,0.09735913498997688,0.17078443668484686
1615357269958259500,7.990259521484375,-0.0880646158894524,0.12070026308894156,0.2595639593780041
1615357269968191500,8.00019140625,-0.06602755612637848,0.1349994220763445,0.30193828924894334
1615357269978124300,8.010124267578124,-0.07745203646030277,0.13412322376370428,0.2962649197876453
1615357269988056300,8.020056396484375,-0.06921849765479564,0.15853168883323668,0.257947171831131
1615357269997988400,8.02998828125,-0.04598780766036361,0.17256898201406,0.18100304836034772
1615357270007920400,8.03992041015625,-0.01958736505601555,0.16856208446025847,0.10260171181857586
1615357270017852700,8.049852783203125,0.02737666722536087,0.17338263648450375,0.05548632490038871
1615357270027785500,8.059785400390625,0.07523030529022216,0.1595107629984617,0.016373627173900604
1615357270037717200,8.06971728515625,0.11076335443165153,0.12982581883072852,-0.010239654463529587
1615357270047649300,8.079649169921876,0.12965166784022003,0.1137801084369421,-0.018904022434353827
1615357270057581300,8.089581298828126,0.12067691874597221,0.1036281322568655,-0.04636486081182956
1615357270067513300,8.099513427734376,0.11054357420112937,0.13238660922944545,-0.06318272462189198
1615357270077446400,8.1094462890625,0.12203527455236762,0.15000643707215786,-0.06247077696025371
1615357270087378400,8.11937841796875,0.13524082961678505,0.16890169167816638,-0.06143032799661159
1615357270097310500,8.129310546875,0.15340893899202346,0.21874445773363113,-0.06964636767804622
1615357270107242200,8.1392421875,0.18513850419726222,0.3194014652252197,-0.062004913014173504
1615357270117174300,8.14917431640625,0.22740886223707346,0.4334562989503145,-0.019756839871406553
1615357270127107300,8.159107421875,0.2834475968558341,0.5195265626847744,0.0650596244096756
1615357270137039400,8.169039306640625,0.3419921037504449,0.5241869557112455,0.20828326947391032
1615357270146971400,8.178971435546876,0.37029403259456156,0.439104533970356,0.39773558174967766
1615357270156903400,8.1889033203125,0.34390754545032975,0.3102864308774471,0.543697711867094
1615357270166835500,8.19883544921875,0.2797877957066521,0.21368658982217312,0.6162134975016117
1615357270176768500,8.2087685546875,0.18085932904072105,0.19067279398143291,0.6139864691019058
1615357270186700300,8.2187001953125,0.09926876800358295,0.22324001558721066,0.5615893423885107
1615357270196632300,8.22863232421875,0.06845682909991592,0.25917992849647997,0.5076274505764246
1615357270206564400,8.238564453125,0.024520693272352217,0.2538695471286774,0.4893184714257717
1615357270216496400,8.248496337890625,-0.06732462846590205,0.1918406687170267,0.49406420464813705
1615357270226429700,8.2584296875,-0.19258827221393585,0.07379004335403443,0.4961760822355747
1615357270236361700,8.26836181640625,-0.2827858267451636,-0.08812836530804634,0.49667526392936706
1615357270246293800,8.278293701171876,-0.34017712675035,-0.25554770947396754,0.4872621234178543
1615357270256225800,8.288225830078124,-0.39308161846399303,-0.3560094866544008,0.4817530046075582
1615357270266158800,8.298158935546875,-0.4134661983123049,-0.35340719520151614,0.39501170974373817
1615357270276091000,8.3080908203125,-0.37613866696953774,-0.27857378027439117,0.2911848400443792
1615357270286023000,8.31802294921875,-0.3385410499811172,-0.10009762004315853,0.1486497617661953
1615357270295954700,8.32795458984375,-0.3068372037390247,0.08859072212278843,-0.024298574954271315
1615357270305886700,8.33788671875,-0.21417581637753172,0.2233025594294071,-0.1686526853531599
1615357270315819800,8.34781982421875,-0.08561139578474684,0.2830605702996254,-0.27584523209333417
1615357270325751800,8.357751708984376,0.07222001755833625,0.2678799523025751,-0.3369920669734478
1615357270335683800,8.367683837890626,0.23281331509649753,0.24401509259045123,-0.334757439789176
1615357270345616000,8.377615966796874,0.38371286508347835,0.1978881321877241,-0.24924247184991835
1615357270355548000,8.3875478515625,0.4814894217679277,0.15867723478376863,-0.16689911968410015
1615357270365481000,8.39748095703125,0.5711924525141716,0.10609598367512225,-0.06118775141239166
1615357270375412700,8.407412841796875,0.5923182791838422,0.041558921834826464,0.050314475220441815
1615357270385344800,8.4173447265625,0.5231144311089069,0.012879939839243888,0.13337562026679514
1615357270395276800,8.42727685546875,0.4222072482485324,0.05370704026818275,0.16719547228217124
1615357270405208800,8.437208740234375,0.33496611410379407,0.09355623557567595,0.15567454583644866
1615357270415142000,8.447141845703126,0.24095168643184003,0.14530863464474678,0.160644150942564
1615357270425074000,8.457073974609376,0.15240180777609347,0.18472469923198223,0.17176526441574097
1615357270435006000,8.467005859375,0.08335231001265346,0.20117139164209363,0.18080372639596462
1615357270444937700,8.476937744140624,0.036921325162053105,0.19114567219018935,0.19465864874720573
1615357270454869800,8.486869873046874,-0.021331505309604107,0.14354396305978298,0.2166360872775316
1615357270464802800,8.496802734375,-0.02709138401057571,0.07402209854424,0.24087796360850333
1615357270474734800,8.50673486328125,0.013751461976766586,0.009777297648787498,0.25693419539630413
1615357270484667000,8.5166669921875,0.06170965639464557,-0.018112579795718193,0.2466138769119978
1615357270494599000,8.526598876953125,0.139504332280159,-0.03990355584323406,0.20505846220850943
1615357270504531000,8.536531005859375,0.23798812391851096,-0.05877776766121387,0.15351532197594642
1615357270514464000,8.546464111328126,0.34646607082672415,-0.10348024821877479,0.0809276401489973
1615357270524395800,8.556395751953126,0.4405717204460874,-0.12813304343819618,-0.011782792252302169
1615357270534327800,8.566327880859374,0.5575147133607417,-0.16078560523986815,-0.11924071193039416
1615357270544259800,8.576259765625,0.6588216361284256,-0.19674071571826934,-0.23539573280513285
1615357270554192000,8.58619189453125,0.7182271802991628,-0.24028876554369924,-0.34440497357845307
1615357270564125000,8.596125,0.7294494891244918,-0.298731017640233,-0.4521621684640646
1615357270574057000,8.606056884765625,0.6843833628863096,-0.34357845962643624,-0.5312883121490478
1615357270583989000,8.615989013671875,0.6362322031795978,-0.36582477822601794,-0.5969950022906064
1615357270593920800,8.625920654296875,0.5745389133978634,-0.40567514257729054,-0.6181091019898652
1615357270603852800,8.635852783203125,0.4911316583275795,-0.41848610883355136,-0.6189911455214023
1615357270613785900,8.645785888671876,0.37524376395642756,-0.36596447895765305,-0.5786562125235796
1615357270623718000,8.6557177734375,0.24445399546436963,-0.3004237930327654,-0.5045733237028122
1615357270633650000,8.66564990234375,0.17782098425813017,-0.24990999584794044,-0.39341304237544533
1615357270643582000,8.67558203125,0.07572722196169197,-0.20930559825897216,-0.31300854931771754
1615357270653514800,8.6855146484375,0.05924304708540439,-0.21203823809325695,-0.2614788530886173
1615357270663446800,8.69544677734375,0.03501987545490265,-0.24434067128300666,-0.24632687666416167
1615357270673378800,8.70537890625,-0.009441124496981501,-0.20729893461167812,-0.2937286793082952
1615357270683310800,8.715310791015625,-0.08910451686382294,-0.10542202993631362,-0.33813480726778505
1615357270693243000,8.725242919921875,-0.15220716198682785,-0.019376900643110276,-0.3912842136532068
1615357270703175700,8.73517578125,-0.191291802662611,0.03616086218357086,-0.44475686064362524
1615357270713107700,8.745107666015626,-0.13565934728980064,-0.007238134559988975,-0.49763855600357054
1615357270723039700,8.755039794921874,0.016636662024259567,-0.098477909886837,-0.508520015501976
1615357270732972000,8.764971923828124,0.19372461930010468,-0.23066695071756838,-0.5173457115143537
1615357270742903800,8.77490380859375,0.3360334510743618,-0.3463169446796179,-0.5062620074421167
1615357270752836600,8.784836669921875,0.4044458930432796,-0.4281844960272312,-0.4779968669444322
1615357270762768600,8.7947685546875,0.47294082566387946,-0.48173722251653667,-0.40350773541033264
1615357270772700700,8.80470068359375,0.5292535183858126,-0.48345104069709777,-0.2790034038633108
1615357270782632700,8.8146328125,0.5369126548368484,-0.42148587517142294,-0.1648094539284706
1615357270792565000,8.82456494140625,0.5197293917804956,-0.32296938683986665,-0.06521802984178066
1615357270802497800,8.834497802734376,0.44297348435819145,-0.23245091152489183,0.030881460475921628
1615357270812429800,8.844429931640626,0.35242300646975633,-0.23195757504999637,0.1076671785145998
1615357270822361600,8.854361572265624,0.2445839054543525,-0.27439854041635986,0.18068799106180666
1615357270832293600,8.864293701171874,0.1833568449448794,-0.3190706258356571,0.2050637229055166
1615357270842225700,8.8742255859375,0.1777319908004254,-0.35336569414734836,0.16873334937393664
1615357270852158700,8.88415869140625,0.19895722272396085,-0.38423663322925566,0.1084253034055233
1615357270862090800,8.8940908203125,0.21010763535685836,-0.39884266620874403,0.013152911561727524
1615357270872022800,8.904022705078125,0.20214878530688582,-0.41185763060450553,-0.12169395030140875
1615357270881954800,8.913954833984375,0.19890936499424278,-0.41876200316548345,-0.31219840197861193
1615357270891886600,8.923886474609375,0.24987850473113357,-0.4380331053465604,-0.509577415600419
1615357270901819600,8.933819580078126,0.3403460535764694,-0.4494464797645807,-0.6940425871133804
1615357270911751700,8.943751708984376,0.4341700001776218,-0.4932113872110843,-0.8579846105575561
1615357270921683700,8.95368359375,0.5155985025208443,-0.5705144071221351,-0.9483546173125504
1615357270931615700,8.96361572265625,0.5313169537216424,-0.681506930667162,-0.9929214887917042
1615357270941547800,8.9735478515625,0.5134994844149798,-0.7228080783486366,-1.0126835893601178
1615357270951480800,8.983480712890625,0.49003860239386554,-0.6364169120967388,-0.989036756312847
1615357270961412900,8.993412841796875,0.49029104278497393,-0.47659869058430193,-0.9089075730651617
1615357270971344600,9.0033447265625,0.4970405901104212,-0.3099257808715105,-0.7705646857798099
1615357270981276700,9.013276611328125,0.5431809945166111,-0.23492051650881765,-0.6446352898657322
1615357270991208700,9.023208740234375,0.5748463719118386,-0.24798925691843032,-0.5372328997671604
1615357271001141800,9.033141845703126,0.5408195991475134,-0.31103812602758407,-0.4154050939530134
1615357271011073800,9.04307373046875,0.4605921431571245,-0.36036008307933803,-0.3051987523496151
1615357271021005800,9.053005859375,0.4002379199594259,-0.3781517603576183,-0.21629063484072683
1615357271030937900,9.062937744140624,0.39414018760621544,-0.3775309981107712,-0.13656769430637358
1615357271040871000,9.072870849609375,0.4225650487102568,-0.3593354162067175,-0.08351239594519137
1615357271050802700,9.082802734375,0.4661503618061542,-0.2725584655076265,-0.07504676541686058
1615357271060734700,9.092734619140625,0.5025321732640267,-0.12068331195414066,-0.07603343836665154
1615357271070666800,9.102666748046875,0.5609568897038698,0.007914426386356354,-0.07775894698500632
1615357271080598800,9.112598876953125,0.6310435484953224,0.08827274221479892,-0.04924304659664631
1615357271090531800,9.12253173828125,0.6432764226026833,0.08638532103300094,-0.07132979072034358
1615357271100463900,9.1324638671875,0.5455536419320851,0.0774509039491415,-0.11601648918688297
1615357271110396000,9.14239599609375,0.3939030909147113,0.11378595365583896,-0.1931131728708744
1615357271120327700,9.15232763671875,0.2408427461646497,0.12127367906272411,-0.2721048765212297
1615357271130259700,9.162259765625,0.19259302145428955,0.0953887116998434,-0.3276438083916902
1615357271140192800,9.17219287109375,0.22953064016401767,0.007681202152371406,-0.32669045318961143
1615357271150124800,9.182124755859375,0.32911154285669325,-0.10765957973003387,-0.3322118469595909
1615357271160056800,9.192056884765625,0.44230654488205906,-0.18512042055130004,-0.37648119679689407
1615357271169988900,9.20198876953125,0.538188593056798,-0.23419395579993724,-0.44333647245168684
1615357271179921000,9.2119208984375,0.5798286173038184,-0.19633914918005466,-0.5729068552166223
1615357271189854000,9.22185400390625,0.5922399167180061,-0.13775076661109922,-0.6737514942348003
1615357271199785700,9.23178564453125,0.6117774147503078,-0.2111252149015665,-0.7114958262175322
1615357271209717800,9.2417177734375,0.5802529801957309,-0.3415975149422884,-0.7493915493696928
1615357271219649800,9.25164990234375,0.5345406650085002,-0.4217500790655613,-0.8333826687425374
1615357271229581600,9.26158154296875,0.5464426997262984,-0.4532072936028242,-0.9917810865849256
1615357271239514600,9.2715146484375,0.6485724831841886,-0.4902642278432846,-1.163417171663046
1615357271249446700,9.28144677734375,0.796439716270566,-0.5379156213343144,-1.3493512466847897
1615357271259378700,9.291378662109375,0.9311772725403308,-0.5953764611780643,-1.5528127950906752
1615357271269310500,9.301310546875,1.0056050292760133,-0.6806085205227136,-1.7251865467935799
1615357271279242500,9.311242431640625,1.0239389967374504,-0.840205792760849,-1.8719202458053825
1615357271289175600,9.321175537109376,1.0483376710653305,-1.0504010333359242,-2.027695913928747
1615357271299107600,9.331107666015624,1.1214778722085057,-1.2252455590665339,-2.1862164968460798
1615357271309039600,9.34103955078125,1.259903030949831,-1.3897545687437056,-2.3691724328398704
1615357271318971600,9.3509716796875,1.4713514864563941,-1.5210200649887322,-2.5737130086541176
1615357271328903700,9.360903564453125,1.7557739927589893,-1.6607734035938977,-2.7484862227141855
1615357271338836700,9.370836669921875,2.0738824955642223,-1.7947627718448638,-2.913220857840776
1615357271348768500,9.3807685546875,2.2827345048367977,-1.8592472267150877,-3.0832956849515436
1615357271358700500,9.390700439453125,2.2456021672725677,-1.6757576222360133,-3.351176806297898
1615357271368632600,9.400632568359375,1.9395809926241636,-1.2407950103759764,-3.776128311753273
1615357271378564600,9.410564697265626,1.7552099291354417,-0.9257552474915981,-4.219752368974685
1615357271388497700,9.42049755859375,2.1377894428074358,-0.9698445645868777,-4.5331578086555
1615357271398429700,9.4304296875,2.5668501371473074,-1.226291853249073,-4.320045803850889
1615357271408361700,9.44036181640625,2.0270454871959984,-1.4777572618454693,-3.692251174148917
1615357271418293500,9.45029345703125,0.9680508130379021,-1.5941741485267877,-3.401140568384528
1615357271428225500,9.4602255859375,0.37560236813575026,-1.4585773450791835,-3.3744068752378222
1615357271438158600,9.47015869140625,0.40317178145423527,-1.0584294414907693,-3.2944571402102705
1615357271448090600,9.480090576171875,0.9034311874806881,-0.5075982244819403,-2.9047137262582776
1615357271458022700,9.490022705078125,1.5448708961755035,-0.08031389216482639,-2.144803705483675
1615357271467954700,9.49995458984375,1.977031310096383,0.06487316192686557,-1.0923673669278622
1615357271477886700,9.50988671875,1.8595472325749693,-0.007287234398722648,0.013401917886734008
1615357271487819800,9.51981982421875,1.21301370787248,-0.22128946604132652,0.8249410036116838
1615357271497751600,9.52975146484375,0.4182271656364202,-0.2588911746829748,1.2462275568187235
1615357271507683600,9.53968359375,-0.14495149177014827,0.01992401313185692,1.2628408379673957
1615357271517615600,9.54961572265625,-0.4220926088929176,0.43155894089639185,0.9313082054436206
1615357271527548700,9.559548583984375,-0.7143944702684879,1.0291711983025074,0.49655602146387096
1615357271537480700,9.569480712890625,-1.0501835911929607,1.704744062745571,-0.10780278759300709
1615357271547412700,9.579412841796875,-1.364524265897274,2.252204926538467,-0.8800193322330713
1615357271557344800,9.5893447265625,-1.6127578529655933,2.4046406365841624,-1.6130898613989353
1615357271567276500,9.599276611328126,-1.8960966556847094,2.2866496324539183,-1.921017746451497
1615357271577208600,9.60920849609375,-2.2868214818894863,2.1078034698665142,-1.9123551320463419
1615357271587141600,9.6191416015625,-2.470565937912464,1.8259966990202665,-1.80353527636528
1615357271597073700,9.62907373046875,-2.3299042522907256,1.3184469898551703,-1.595072558671236
1615357271607005700,9.639005615234375,-2.1820297126807273,0.6150058752775192,-1.306785778155923
1615357271616937700,9.648937744140625,-1.930173112809658,0.017650222980976103,-0.926632030326128
1615357271626869800,9.658869873046875,-1.6774739246346055,-0.45725510768890376,-0.5077034384220839
1615357271636802600,9.668802490234375,-1.8348903457023202,-0.6623036330252885,-0.09397007707357406
1615357271646734600,9.678734619140625,-2.120661928526312,-0.8027268337160348,0.29743747069835663
1615357271656666600,9.68866650390625,-2.542191496708989,-0.8740133698165417,0.611867577251792
1615357271666598700,9.6985986328125,-2.8202257632791996,-0.8279296640336513,0.7271651045143603
1615357271676531500,9.708531494140624,-2.7501611701890827,-0.7363461898356676,0.7039964103728532
1615357271686463500,9.71846337890625,-2.4289785206355154,-0.49632279722988604,0.5560889914065599
1615357271696395500,9.7283955078125,-2.133245369637012,-0.12502806316018103,0.28102701864540575
1615357271706327600,9.73832763671875,-1.815228929029405,0.2149497416257858,-0.00402677129805088
1615357271716259600,9.748259521484375,-1.4480045131385326,0.5436532882034778,-0.22291268332898614
1615357271726192400,9.7581923828125,-1.0344041305199265,0.7247066054463386,-0.24662322926223276
1615357271736124400,9.76812451171875,-0.6459396504625677,0.7617500956833362,-0.16083119794726372
1615357271746056400,9.778056396484375,-0.5104229265138507,0.7375970666795969,-0.04128536559045314
1615357271755988500,9.787988525390626,-0.5623255477085709,0.6887871508032083,0.14930091915130614
1615357271765920500,9.79792041015625,-0.7211459903553128,0.5261614706546068,0.4397773186653852
1615357271775853600,9.807853515625,-0.8481205114081501,0.27667057700157166,0.8781447705328465
1615357271785785600,9.81778564453125,-1.1139853244960307,0.12706979812085628,1.5375976903021336
1615357271795717400,9.82771728515625,-1.7220599392056464,0.07773673515319823,2.3450082979202267
1615357271805649400,9.8376494140625,-2.2051932922556996,-0.10302782827615738,2.885912579676509
1615357271815581400,9.84758154296875,-2.4258415377840397,-0.3788128546148538,3.193775582799315
1615357271825514500,9.857514404296875,-2.4324644630551338,-0.6518021127551794,3.310915523058176
1615357271835446500,9.867446533203125,-2.3966265492156147,-0.8457733637601137,3.1582091793775557
1615357271845378600,9.877378662109376,-2.3990514382749795,-1.0577169093072414,2.751413508337736
1615357271855310600,9.887310546875,-2.5013892384603618,-1.2877993381351232,2.27275262452662
1615357271865242400,9.897242431640626,-2.680521232251823,-1.4539274734467267,1.8340736224919556
1615357271875175400,9.907175537109374,-2.7734356627926227,-1.5604957508087158,1.472327053490281
1615357271885107500,9.917107421875,-2.50894593745023,-1.555349620091915,1.1694207959920166
1615357271895039500,9.92703955078125,-2.2245731155082584,-1.5003484483599663,0.8935796555519103
1615357271904971500,9.936971435546875,-2.0594678935036064,-1.4041951820284126,0.7290133627295494
1615357271914903600,9.946903564453125,-1.8735434630930423,-1.2931775240421295,0.6302326705038547
1615357271924836600,9.956836669921875,-1.6420391847684979,-1.1815250752836466,0.5541992321372032
1615357271934768600,9.9667685546875,-1.3609537139341235,-1.0158061052948235,0.3924427360385656
1615357271944700400,9.976700439453126,-0.9291837606355547,-0.7697691514879464,0.07723346180617809
1615357271954632400,9.986632568359376,-0.24191052152663467,-0.4900982236266136,-0.33781682735979557
1615357271964564500,9.996564453125,0.7168553074240684,-0.30025077455341814,-0.7431827578574418
1615357271974497500,10.00649755859375,1.9522499200612304,-0.21546412088871,-1.150417989358306
1615357271984429600,10.0164296875,3.789605048441887,-0.11852408809363842,-1.7794687566012144
1615357271994361600,10.026361572265625,5.94800824021101,0.11791501628458499,-2.8337597831130026
1615357272004293600,10.036293701171875,7.141557515287399,0.5261041875094175,-4.24646911098659
1615357272014225400,10.046225341796875,6.684612788721918,1.0585691422224044,-5.387075900426507
1615357272024158500,10.056158447265625,5.692284589648247,1.3162889350384472,-5.975626314976811
1615357272034090500,10.066090576171876,5.406246464842558,0.8758201269775628,-5.7058045809566975
1615357272044022500,10.0760224609375,5.747443582290411,-0.2734989612281322,-4.652449958512187
1615357272053954600,10.08595458984375,5.595292534404993,-1.5344424411416053,-3.322869580224156
1615357272063886600,10.095886474609374,3.9234196446478364,-1.9021914654284715,-1.9611592027038334
1615357272073819600,10.105819580078125,0.310088862478733,-1.5193974322229622,-0.44236967324614523
1615357272083751700,10.115751708984375,-3.7625650658249854,-0.6531447595357894,0.8295259933143854
1615357272093683500,10.125683349609375,-6.070430504786968,0.83733169862926,1.2816969296067953
1615357272103615500,10.135615478515625,-6.014183132386207,2.868168248671293,1.1621394068121909
1615357272113547500,10.145547607421875,-4.8796471872925755,4.904250298151373,0.8103221111506224
1615357272123480600,10.15548046875,-2.5647631017401813,6.940978828841447,0.08060381502211093
1615357272133412600,10.16541259765625,1.0108813622437416,7.163166705027222,-0.8412859892129898
1615357272143344600,10.1753447265625,2.7563176469922066,3.8780706828802822,-0.5662140795797109
1615357272153276400,10.1852763671875,1.2346271353960037,0.48729953281879423,0.9185890091240405
1615357272163208400,10.19520849609375,-1.2672002022206783,-0.9690805944770574,2.1445020921885964
1615357272173141500,10.2051416015625,-2.9615421134173867,-1.9648878678381443,2.9462790778338905
1615357272183073500,10.215073486328125,-3.613928163540363,-2.817748559510708,3.475162666928768
1615357272193005600,10.225005615234375,-3.718583300757408,-3.3069700003027913,3.8177386715143915
1615357272202937600,10.2349375,-3.958333137118816,-3.3857366630256176,3.8007261619150636
1615357272212869600,10.24486962890625,-4.439910200637579,-2.954013471478224,3.2499212483912703
1615357272222802700,10.254802734375,-4.781601823604107,-2.0979279725402593,2.269330248862505
1615357272232738600,10.264738525390625,-4.851327101737261,-1.0924649820834398,1.2382248676270247
1615357272242670600,10.274670654296875,-4.605618649232388,-0.12651274875998497,0.3120195382803678
1615357272252602600,10.2846025390625,-3.9576644440770146,0.7309189040899277,-0.4469985020905733
1615357272262534700,10.29453466796875,-2.558034962528944,1.2177420515686272,-1.12758247269392
1615357272272467700,10.3044677734375,0.463493125295639,1.2806126415014267,-1.6388222685486078
1615357272282399700,10.314399658203126,3.9812650998950003,0.9376905999571085,-1.7779957614392041
1615357272292331500,10.32433154296875,3.9718800164341923,0.2282657347947359,-1.3088134845912456
1615357272302263600,10.334263671875,2.256013671171665,-0.4743219778239727,-0.7698720273405313
1615357272312195600,10.344195556640624,1.165798513841629,-0.9380056572556495,-0.38103929849267004
1615357272322128600,10.354128662109375,0.8858639666080474,-1.1209008029729126,-0.14401450318098066
1615357272332060700,10.364060791015625,1.1300503241121769,-1.1385673925668,0.030469957065582275
1615357272341992700,10.37399267578125,1.675941162109375,-1.1025678584247827,0.4917997668474912
1615357272351924700,10.3839248046875,0.6683505850393324,-0.9491565813452005,0.7208762335032224
1615357272361856500,10.3938564453125,0.7616600793123245,-0.6535638617306947,0.314762699508667
1615357272371789600,10.40378955078125,1.3187871815949677,-0.4487754486352205,-0.39096389565765854
1615357272381721600,10.4137216796875,0.7343336809694767,-0.4414548964887857,-1.1324795970857142
1615357272391653600,10.423653564453126,-0.40811669051051136,-0.5400625702351332,-1.5602853229284286
1615357272401585700,10.433585693359374,-1.320030459654331,-0.7990478529423475,-1.7356430588781833
1615357272411517700,10.443517578125,-1.7345874123454093,-1.111103631579876,-1.6125100156843661
1615357272421450500,10.453450439453125,-1.810053864479065,-1.4351660743534564,-1.3788088118374346
1615357272431382800,10.4633828125,-1.6539292367875575,-1.7521341749519108,-1.1600286982685326
1615357272441314600,10.473314453125,-1.3062532787144183,-1.987242322987318,-0.9546937572062015
1615357272451246600,10.48324658203125,-0.9083446784853935,-1.9979589473128319,-0.7320271575927734
1615357272461178600,10.4931787109375,-0.5701707082509995,-1.7801023783296346,-0.5672241334050894
1615357272471111400,10.503111328125,-0.28649290110217407,-1.44711428630054,-0.4153267680197954
1615357272481043500,10.51304345703125,-0.13656186735378578,-1.0558195512533188,-0.29724808560609817
1615357272490975700,10.522975830078124,-0.21568857729434965,-0.6010609365552664,-0.253280933585763
1615357272500907800,10.53290771484375,-0.30586044939504936,-0.0380938760727644,-0.28302725255191324
1615357272510839600,10.542839599609374,-0.303295001087524,0.5289163223206996,-0.3575128769546747
1615357272520772400,10.5527724609375,-0.2645896785855293,1.0342419256955384,-0.434762705373764
1615357272530704400,10.562704345703125,-0.14740882179439066,1.4251894547402857,-0.4825158056735992
1615357272540636400,10.572636474609375,0.2797047570656985,1.7484961107105015,-0.39380584108531475
1615357272550568700,10.582568603515625,1.706325778979063,2.1317846494346857,-0.1497299582183361
1615357272560500700,10.592500732421875,3.5021740079730748,2.3120500311702488,0.200193486520648
1615357272570433500,10.60243359375,3.5951001289516684,1.6114719048082828,0.36444355300068854
1615357272580365600,10.612365478515626,2.6236688796952365,0.5024374807178974,0.3778168293148279
1615357272590297300,10.62229736328125,1.5483233747169374,-0.5858493388980627,0.08476677992045879
1615357272600229400,10.6322294921875,0.8797247332006692,-1.5719938809007405,-0.538306081956625
1615357272610161700,10.64216162109375,0.7193583762861788,-1.9989345143467188,-1.4656909764766692
1615357272620094500,10.652094482421875,1.000452468818426,-1.7893009993076323,-2.3764783719390628
1615357272630026500,10.662026611328125,1.5618278761953115,-1.3118179271042347,-2.977719341236353
1615357272639958500,10.67195849609375,2.2682979832053185,-1.0394009158939121,-3.5477924343317744
1615357272649890600,10.681890625,3.1122175357922908,-0.984251275601983,-4.22172045417726
1615357272659822300,10.691822265625,4.04107688677907,-0.8957616757661103,-4.634834806844592
1615357272669755400,10.70175537109375,4.395245714002847,-0.6140133571088313,-4.350546156054735
1615357272679687400,10.7116875,3.812215524178743,-0.6900567323476076,-3.557091008552909
1615357272689619500,10.721619384765624,2.9193977929100394,-0.9814029004335403,-2.568147191220522
1615357272699551500,10.731551513671874,2.151118003197014,-0.7238017655611038,-2.010702109029889
1615357272709483500,10.7414833984375,2.007625916454941,0.01990647747516632,-1.632320631569624
1615357272719416600,10.75141650390625,1.996710700817406,0.6921136648774147,-1.4451362642258405
1615357272729348600,10.7613486328125,1.3161989186674357,1.1186316889971495,-1.8345137674748897
1615357272739280400,10.7712802734375,0.33248306511640546,1.3370681036949157,-2.6804624878019094
1615357272749212400,10.78121240234375,-0.3448872041374445,1.477562031534314,-3.5035189928412436
1615357272759144400,10.79114453125,-0.39142157629728314,1.518075828230381,-3.7333623522162434
1615357272769077500,10.801077392578126,0.17990765433907507,1.4142764310598372,-3.123377519971132
1615357272779009500,10.811009521484374,0.6610813977539539,0.9817547826111316,-1.851083794003725
1615357272788941600,10.820941650390624,0.43076698680110276,0.5925444526225329,-0.47278176264464855
1615357272798873600,10.83087353515625,0.19713588904831558,0.4676058213114738,0.7011509578138589
1615357272808805400,10.840805419921875,-0.016087211447954178,0.4948322664111852,1.4891788195699454
1615357272818738400,10.850738525390625,-0.03137129438605625,1.0294014999270438,1.9141145429342985
1615357272828670500,10.86067041015625,0.1432054700867273,2.285877479037642,2.21928231562376
1615357272838602500,10.8706025390625,0.29160167721696195,4.006137675344943,2.3121944080770014
1615357272848534500,10.880534423828125,0.4993195678930729,5.844888057476282,2.0036831701785327
1615357272858466600,10.890466552734376,0.8131855377577245,7.346124979108572,1.277474927997589
1615357272868399600,10.900399658203124,0.9312018224596976,8.002790898507833,0.46970425489544865
1615357272878331600,10.91033154296875,0.44996370857171714,7.597458285757899,0.12632219462394714
1615357272888263400,10.920263427734374,-0.6240624574363232,6.059613927218318,0.3633347149759531
1615357272898195500,10.930195556640625,-1.951795746552944,3.830644330316782,0.937547976616025
1615357272908127500,10.94012744140625,-3.227870160102844,2.09011233035326,1.7588818956464527
1615357272918060500,10.950060546875,-4.455685569657385,1.0293372025191783,2.642240016913414
1615357272927992600,10.95999267578125,-5.446086307799816,0.4244926557719707,3.368565747994184
1615357272937924600,10.969924560546875,-5.546645115613937,0.03518061897456646,3.937547538721561
1615357272947856600,10.979856689453126,-4.755835806445777,-0.5745177975445985,4.145912056738138
1615357272957788400,10.989788330078126,-3.0787232624694703,-1.1969675590872764,4.200950637871027
1615357272967721500,10.999721435546874,-1.5923326123133301,-1.4774077177554368,3.9280391211420294
1615357272977653500,11.009653564453124,-0.5050502935647965,-1.5498673892885446,3.397025534281134
1615357272987585500,11.01958544921875,-0.1373217275440693,-1.242082712098956,2.777943203344941
1615357272997517600,11.029517578125,-0.5171779537320137,-0.6861608939528465,2.0422557696789503
1615357273007449600,11.03944970703125,-1.0523436918362974,-0.10051029249727725,1.4227268640190363
1615357273017382700,11.049382568359375,-1.3783479163274168,0.30677228527665135,0.9607587563335895
1615357273027314700,11.059314697265625,-1.6453490399688482,0.6112795482307672,0.574470451271534
1615357273037246500,11.06924658203125,-1.907526104454696,0.6648083093225956,0.2992851443916559
1615357273047178500,11.079178466796876,-2.131669498622417,0.5389268442034721,0.12180150232911109
1615357273057110500,11.089110595703126,-2.518052788491547,0.34251229169964786,0.25798165862262246
1615357273067043600,11.099043701171874,-2.9024197701022025,0.08361994797289371,0.8587795603275299
1615357273076975600,11.1089755859375,-3.0418422693178058,-0.06438917780220509,1.809232611224055
1615357273086907600,11.11890771484375,-2.903148668898642,-0.14898235472142696,2.615273684054613
1615357273096839700,11.128839599609375,-2.807792690424621,-0.1743862605690956,3.2274756078273055
1615357273106771500,11.138771484375,-2.8345234609618783,-0.1395166072398424,3.598674480307102
1615357273116704500,11.14870458984375,-2.8089035742759703,-0.06472235527932643,3.71973597792387
1615357273126636500,11.158636474609375,-2.5957106131896377,0.02533843939602375,3.6601439712703225
1615357273136568600,11.168568603515626,-2.19965319378525,0.10321136814951896,3.3754677824676036
1615357273146500600,11.17850048828125,-1.6806769584596155,0.1470633693575859,2.8465841933727263
1615357273156432600,11.1884326171875,-0.9902201208785175,0.21165596077740192,2.208501393890381
1615357273166365700,11.19836572265625,-0.01786561929732561,0.18881050724089143,1.362407712134719
1615357273176297700,11.208297607421875,1.227075112581253,-0.02895487632751465,0.2961363249719143
1615357273186229500,11.2182294921875,2.633813549351692,-0.529700750696659,-0.8233657171189784
1615357273196161500,11.22816162109375,3.765051914204657,-1.3937801709979771,-2.145385304763913
1615357273206093600,11.238093505859375,4.34768316783905,-2.218959659540653,-3.478549386757612
1615357273216026600,11.248026611328125,3.9464953998088834,-2.2004688940823076,-4.459709126085043
1615357273225954300,11.257954345703125,3.434367715203762,-1.7569202401846646,-5.543185915070771
1615357273235886300,11.26788623046875,4.050698117083311,-1.2691513362884521,-6.724203040832281
1615357273245818400,11.277818359375,5.052768542492389,-0.6818249105751514,-7.3586162118911735
1615357273255750400,11.28775048828125,5.958191780573129,0.42889819725453854,-7.207915947335958
1615357273265683500,11.297683349609375,8.17607475079298,1.234490357273817,-6.316659181773662
1615357273275615200,11.307615234375,10.502083749210835,0.8013397632718086,-4.738336682373285
1615357273285547300,11.31754736328125,10.16969070046544,-0.3864128082245588,-2.282960714808106
1615357273295479300,11.327479248046876,7.698396448278427,-1.5234727188378572,1.0299041887521743
1615357273305411300,11.337411376953124,3.205268159933388,-1.630455422219634,4.094103543567657
1615357273315344400,11.347344482421875,-2.3551195036984978,-0.1597036552220583,5.672442409580945
1615357273325276400,11.3572763671875,-6.327278775465488,2.3084289180636404,4.9723143650740385
1615357273335208400,11.36720849609375,-7.693243303298949,5.079817877459526,2.393048398467898
1615357273345140200,11.37714013671875,-7.781393880438804,8.056234903925656,0.58055766223073
1615357273355072300,11.387072265625,-6.88513594558835,10.239890610373019,-0.31719080343842504
1615357273365005300,11.39700537109375,-5.5771594963431355,11.28744385306239,0.09003624475598335
1615357273374937300,11.406937255859376,-3.1542449519217013,10.618457381272316,2.2616940548956395
1615357273384869400,11.416869384765626,0.8850725239694118,6.800162244918942,4.329115245491266
1615357273394801400,11.426801513671874,4.727729948163033,1.9518857629239559,5.324201803362369
1615357273404733400,11.4367333984375,6.703872200465202,-1.3974001150608062,6.229505214455723
1615357273414666500,11.44666650390625,5.235100793629885,-3.091088530784845,6.31701807821393
1615357273424598300,11.456598388671875,1.5238941591203212,-2.8531448670625683,5.753000047373772
1615357273434530300,11.4665302734375,-1.4903554621338844,-2.1898189052522183,5.4499646105378865
1615357273444462300,11.47646240234375,-3.295942410331964,-1.8109926066339015,5.135362070026994
1615357273454394400,11.486394287109375,-5.241936192607879,-1.0915548815011977,4.52152173139751
1615357273464327400,11.496327392578126,-6.990180374383926,0.14319266540408135,3.572276887246966
1615357273474259500,11.506259521484376,-7.814286096215247,1.3029624204754828,2.3055419644504784
1615357273484191500,11.51619140625,-7.355940270680189,1.9822072514295577,0.9527601587951183
1615357273494123300,11.526123291015624,-6.361148311841488,2.5247785896152255,-0.33834406610429285
1615357273504055300,11.53605517578125,-5.406183336478471,2.7967279833137986,-1.3249445351809261
1615357273513988400,11.54598828125,-4.336581928110123,2.622483761563897,-1.838231911215186
1615357273523920400,11.55592041015625,-3.347333574873209,2.015184807401895,-1.9975451058149336
1615357273533852400,11.565852294921875,-2.563994747716188,1.2160440154790877,-1.9413105928957461
1615357273543784400,11.575784423828125,-1.982822168457508,0.40245734957456586,-1.8084791625082492
1615357273553716500,11.585716552734375,-1.4583072959661483,-0.511246810117364,-1.3454273512393236
1615357273563649500,11.5956494140625,-1.266939505457878,-1.1801841820687056,-1.0430144302159547
1615357273573581300,11.605581298828126,-1.3868494949519634,-1.3521166197448968,-1.3637111959487198
1615357273583513300,11.615513427734374,-1.2596423341870306,-1.708088112476468,-1.5926988152772188
1615357273593445400,11.6254453125,-0.6207593242377042,-2.3118904566943645,-1.7637392725497483
1615357273603377400,11.63537744140625,2.004205148226023,-3.0273738912433386,-2.024167739802599
1615357273613310500,11.645310546875,4.89058709897995,-3.1706524813652037,-2.3311177197337147
1615357273623242500,11.655242431640625,4.50574256298542,-2.6466303608268498,-2.5232266839981077
1615357273633174500,11.665174560546875,1.8874387174546718,-2.0968068595558402,-2.727828634610772
1615357273643106300,11.675106201171875,-0.04823839959874749,-1.7456372141480445,-3.050191287729144
1615357273653038300,11.685038330078125,0.021748305949568746,-1.4895207648754119,-3.265964620697498
1615357273662970400,11.694970458984375,0.8418769408434629,-1.1817805113494395,-3.053337184539437
1615357273672903400,11.7049033203125,1.6330582981944084,-0.885088890582323,-2.788359967941046
1615357273682835500,11.71483544921875,2.7330104211628434,-0.8948217645674943,-2.7346313003629446
1615357273692767500,11.724767578125,3.2066789035141468,-1.2735720753401518,-2.387071662145853
1615357273702699500,11.734699462890624,2.7953368212163445,-1.4958733487725258,-1.8739333391934632
1615357273712631300,11.74463134765625,2.0259423482596874,-1.5353320834577082,-1.5011393064767122
1615357273722564000,11.754564208984375,1.4594889069661496,-1.4004916513353585,-1.2858166398853064
1615357273732496400,11.764496337890625,1.3338845052227377,-1.1527315269976854,-1.2085393389374017
1615357273742428400,11.774428466796875,1.5699425013288855,-0.8719254576265811,-1.207608195567131
1615357273752360400,11.7843603515625,1.9523712083533404,-0.694110391652584,-1.1987468437194824
1615357273762292500,11.79429248046875,2.1749428231596943,-0.7279185532301664,-1.134048453837633
1615357273772225300,11.804225341796876,2.0061863851711155,-0.8906593841910362,-1.1138386095017194
1615357273782157300,11.8141572265625,1.6240753657937048,-1.1036170752167702,-1.205662906718254
1615357273792089300,11.82408935546875,1.3259459673084317,-1.2334481547445058,-1.416412274044752
1615357273802021400,11.834021484375,1.2567115414321421,-1.2975135074198245,-1.763766160556674
1615357273811953400,11.843953369140625,1.1327180820167064,-1.3217746729731559,-2.1859598917365073
1615357273821886200,11.85388623046875,0.7758607463613152,-1.3261720311492682,-2.573005152645707
1615357273831818200,11.863818359375,0.7117781502902507,-1.414112764930725,-2.624973824813962
1615357273841750300,11.873750244140625,1.18336456567049,-1.4670798004865646,-2.44616039545238
1615357273851682300,11.883682373046875,1.8361612424209712,-1.548915203130245,-2.1862059754520655
1615357273861614300,11.8936142578125,2.2978251064628363,-1.6735270867049694,-1.980190650910139
1615357273871547100,11.903547119140624,2.6355951720714565,-1.7313479920327663,-1.8796096312642097
1615357273881479200,11.913479248046874,3.014966829612851,-1.7216612952768802,-1.8760995773166418
1615357273891411200,11.9234111328125,3.2583547302156686,-1.4756015451163054,-1.8776164116203784
1615357273901343200,11.93334326171875,3.1583488801091906,-0.8965069411754608,-2.039116887131333
1615357273911275300,11.943275146484375,2.799566713871062,0.017273206362128257,-2.4102935477793217
1615357273921208300,11.953208251953125,2.825636682412028,0.6664046386033297,-2.421622751045227
1615357273931140400,11.963140380859375,2.0275434998460113,1.175690377780795,-2.1324171021193266
1615357273941072100,11.973072021484375,0.14137728654518722,1.3910866941303015,-2.501626846608519
1615357273951004200,11.983004150390625,0.06684972269684077,1.5702204414874315,-3.4506595093131063
1615357273960936200,11.992936279296876,1.0856326518453656,2.0848013644635675,-3.9679298175036903
1615357273970869200,12.002869140625,1.7607891905725002,2.4114076465010643,-3.5284991203188896
1615357273980801300,12.01280126953125,1.5520955867320299,2.107389043846726,-2.100969824454188
1615357273990733300,12.0227333984375,0.7198088234674185,1.4066969357162713,-0.601997925144434
1615357274000665300,12.032665283203125,0.22208671736624092,1.229378713348508,0.28948037421405315
1615357274010597000,12.04259716796875,0.5094429755657911,1.7094576472640037,0.7603869906365871
1615357274020530200,12.0525302734375,1.0003542691409588,2.6886317657321688,1.1181132180809974
1615357274030462200,12.062462158203125,1.1424691492456942,4.204558306974173,1.5156915634423493
1615357274040394200,12.072394287109375,0.9909166517753153,6.224510474908351,1.9824773005425929
1615357274050326300,12.082326171875,0.6703473848797381,8.226546462401748,2.327721063032746
1615357274060258300,12.09225830078125,0.463571451228857,9.702835989782214,2.472117843529582
1615357274070191400,12.10219140625,0.3187595140598714,9.7496170301795,2.1169062292546035
1615357274080123400,12.112123291015624,-0.9049427610874176,7.756806551671028,1.8415426431983708
1615357274090055200,12.12205517578125,-2.928043163919449,5.126641003432869,1.8963094216525553
1615357274099987200,12.1319873046875,-4.749783959060907,2.9881261689603327,2.16374221470952
1615357274109919200,12.141919189453125,-6.351190396928787,1.5816893454849719,2.8466140039891004
1615357274119852300,12.151852294921875,-7.101310845094919,0.6640244654685259,3.41805254021883
1615357274129784300,12.161784423828125,-6.547428423821926,-0.4904162035346031,3.6917514079332348
1615357274139716400,12.17171630859375,-5.0188417229712,-1.298655663192272,3.687280984520912
1615357274149648400,12.1816484375,-3.063937781269848,-1.395630182778835,3.349018751481175
1615357274159580200,12.191580078125,-1.4555883923962711,-1.3265250823706387,2.5109926408469674
1615357274169513200,12.20151318359375,-0.5486290307894349,-1.029145479339361,1.6045190169304608
1615357274179445200,12.2114453125,-0.14171703989356754,-0.5658282951325178,0.9301356545329094
1615357274189377300,12.221377197265625,-0.1998188079893589,0.05412672698497772,0.44024961235225196
1615357274199309300,12.231309326171875,-0.49332215410917996,0.5890811604261398,0.12909575099051
1615357274209241300,12.241241455078125,-0.9923971726566553,1.0282944154679774,0.15646715751886367
