time,seconds_elapsed,z,y,x
1615025472903672600,0.022672607421875,-0.1408463945388794,0.0791547852575779,-0.2666635622501373
1615025472913604900,0.03260498046875,-0.06708557727932929,-0.01136836623251438,-0.35832068620622154
1615025472923536600,0.04253662109375,0.004942132577300072,-0.029326047727465627,-0.3707499596685171
1615025472933468700,0.05246875,0.06971534126102924,0.0697609339684248,-0.26356384266912936
1615025472943400700,0.062400634765625,0.15457681372761725,0.1025911904245615,-0.11637830823659896
1615025472953332700,0.072332763671875,0.12736264358758925,0.011314005696773528,0.06678747111558914
1615025472963264800,0.0822646484375,0.11493220108151435,-0.14182897583544254,0.19599954196214675
1615025472973196800,0.09219677734375,0.14738836352825163,-0.2714344299137592,0.23385376406013964
1615025472983128600,0.102128662109375,0.2249801372528076,-0.3158288674354553,0.1668739852428436
1615025472993060600,0.112060546875,0.26330197686254975,-0.26330314590632914,0.10902326929867268
1615025473002992600,0.12199267578125,0.23737550844550132,-0.14651742591261863,-0.004415478354692459
1615025473012924700,0.131924560546875,0.11917466095685958,-0.04281505937576294,-0.07434767723679542
1615025473022856700,0.141856689453125,0.0434744000673294,-0.03952537018060684,-0.012613982379436492
1615025473032788700,0.151788818359375,0.06713058546483516,-0.08643091374039649,0.05608604435920715
1615025473042720500,0.161720458984375,0.049391222895681854,-0.13152853109538554,0.07493979791104793
1615025473052652500,0.171652587890625,0.057277007709443564,-0.18435411235392093,-0.022834347620606422
1615025473062584600,0.18158447265625,0.050886137628555296,-0.1887432872235775,-0.1824210984647274
1615025473072516600,0.1915166015625,0.05834814407229423,-0.13653028490543365,-0.30979192535877226
1615025473082448600,0.20144873046875,0.06389905619770288,-0.16551672541499138,-0.32048926046192644
1615025473092380400,0.21138037109375,-0.0425771589666605,-0.22978256909847258,-0.22057284220457077
1615025473102312400,0.2213125,-0.08135930956453084,-0.04957388598620891,-0.09695581488609313
1615025473112244500,0.231244384765625,0.09875555778443813,0.16666764901578426,0.0618003303527832
1615025473122176800,0.2411767578125,0.00012625672817230223,0.16202654521167278,0.22137539075911045
1615025473132108800,0.25110888671875,-0.12784545866847039,0.06725508862733841,0.293046542263031
1615025473142040800,0.261040771484375,-0.12266980959624052,-0.00916939488351345,0.2427086861670017
1615025473151972600,0.27097265625,-0.06005787059962749,-0.05127016851007938,0.11579787800014019
1615025473161904600,0.280904541015625,0.019798340925574302,-0.06812836433053017,-0.06138941146433353
1615025473171836700,0.290836669921875,-0.0019008651852607725,-0.05402794278562069,-0.20660744521617888
1615025473181768700,0.300768798828125,-0.09934855524152517,-0.048616439130902286,-0.24618366880118844
1615025473191700700,0.31070068359375,-0.02188449954986572,-0.06189093124568462,-0.1619248384028673
1615025473201632800,0.3206328125,0.15301526349931954,-0.15043781422674654,-0.02445347325503826
1615025473211564500,0.330564453125,0.19910101510882378,-0.24435236172080038,0.0961380687624216
1615025473221496600,0.34049658203125,0.21919161697924136,-0.3112333563387394,0.12343407196700572
1615025473231428600,0.3504287109375,0.22811901980042457,-0.3422960186004638,0.10347849465310573
1615025473241360600,0.360360595703125,0.2023570942953229,-0.37877193808257575,0.03950725000202655
1615025473251292700,0.370292724609375,0.11979834581315517,-0.4289332685679197,0.004777881926298141
1615025473261224700,0.380224609375,0.1217906886741519,-0.4973047940045595,-0.012899229061603545
1615025473271156500,0.390156494140625,0.15460545530021189,-0.5564198307961226,0.031761750441789624
1615025473281088500,0.400088623046875,0.263915140324831,-0.6362894863247871,-0.0861345611423254
1615025473291019800,0.410019775390625,0.37001667695790524,-0.707667207840085,-0.3344114028304815
1615025473300951600,0.41995166015625,0.16421090351343154,-0.7571043157041072,-0.49941550254821776
1615025473310883600,0.429883544921875,-0.3254918910548091,-0.7994184398204087,-0.6821615951836109
1615025473320815600,0.439815673828125,-0.5604337426126003,-0.342437472897768,-0.2570166129827499
1615025473330747600,0.44974755859375,-0.44780221968889233,-0.24125498022735117,0.23199030827581882
1615025473340679700,0.4596796875,-0.2712140651613474,-0.5763339070558547,0.223964822730422
1615025473350611500,0.469611572265625,-0.5784048681110143,-0.4241922115206718,0.26838731730282306
1615025473360543500,0.47954345703125,-0.6522901885330676,-0.1963537622272968,0.22520517818033695
1615025473370475500,0.4894755859375,-0.39021395407319065,-0.06547989564836025,0.062306526309251785
1615025473380407600,0.499407470703125,-0.15840163271278143,0.10831132163703441,-0.053823360124230384
1615025473390339600,0.509339599609375,-0.1660711444273591,0.24009645784199238,-0.10823445700854062
1615025473400271600,0.519271728515625,-0.1124380461782217,0.29014205299317836,-0.14963263532370327
1615025473410203400,0.529203369140625,-0.13925561821609736,0.3515624441176653,-0.1146907935410738
1615025473420135400,0.539135498046875,-0.08465688980519771,0.44252106441557404,0.027315292426943777
1615025473430067500,0.5490673828125,0.10617957030534744,0.5149567705512047,0.2182110815092921
1615025473439999500,0.55899951171875,0.3091483667582273,0.45533904493451116,0.21987258498072623
1615025473449931500,0.568931640625,0.3212713507503271,0.4406371503651142,0.15538257715255022
1615025473459863600,0.578863525390625,0.409191626265645,0.3637292672514915,0.025871815620362757
1615025473469795600,0.588795654296875,0.26205723749846216,0.30743630214333534,-0.018958967491984367
1615025473479727600,0.5987275390625,0.1962044168844819,0.30434476586878295,0.07496464009135961
1615025473489659600,0.60865966796875,0.2098743380576372,0.21099369747638702,0.1253705929875374
1615025473499591700,0.618591796875,0.1856654872134328,0.002980477115511894,0.09538754265606403
1615025473509523700,0.628523681640625,0.2611030055135488,-0.17801497246026993,0.0932709888935089
1615025473519455700,0.638455810546875,0.11938625788092612,-0.3223603150308132,0.0937678324997425
1615025473529387500,0.648387451171875,0.06474047545790672,-0.3558732930541038,0.17894962296187877
1615025473539319600,0.658319580078125,0.049472179177403444,-0.4140905042231083,0.25546061571240425
1615025473549251600,0.66825146484375,-0.06501695431172848,-0.6735901661932469,0.2009030960947275
1615025473559183600,0.67818359375,-0.3157262838438153,-0.856338012394309,0.06961743384450673
1615025473569115600,0.68811572265625,-0.29714404070973394,-0.8610942670106887,-0.03007365122437477
1615025473579047400,0.69804736328125,-0.1232502398326993,-0.7343477094948291,-0.04131371490210294
1615025473588979500,0.7079794921875,-0.04720686459392309,-0.6051221946448088,-0.009458440957963466
1615025473598911500,0.717911376953125,-0.028317455206811427,-0.5877817682653665,0.020232932950556278
1615025473608843500,0.727843505859375,-0.08107640096992254,-0.5871317799240351,0.04002425961345434
1615025473618775600,0.737775634765625,-0.17774638465195894,-0.48767888752520083,0.06991232513785361
1615025473628707600,0.74770751953125,-0.13095190025120973,-0.24364918188750742,0.13427052327990532
1615025473638639400,0.757639404296875,0.06545885286033153,-0.06329553734660148,0.1531581791013479
1615025473648571400,0.7675712890625,0.2746346872597933,-0.09892097747921944,0.04952361710369586
1615025473658503400,0.77750341796875,0.36574411420524117,-0.26799510311484337,-0.14582856686562298
1615025473668435500,0.787435546875,0.3243158330127597,0.055742345488071436,-0.2725508667230606
1615025473678367500,0.797367431640625,-0.17496318367421626,1.5719973880320786,0.10218494771122932
1615025473688299800,0.8072998046875,0.2023728763863444,2.5984429607629775,0.30600276220887895
1615025473698231600,0.8172314453125,1.0921294665187598,1.491049874138832,-0.4563695570260286
1615025473708163600,0.82716357421875,0.4053419651001692,0.6909165640473366,-0.7654688239455223
1615025473718095600,0.837095703125,-0.3655290101498365,0.5880114853680134,-0.6520072799384593
1615025473728027600,0.847027587890625,-0.15591799920350313,0.3650643152475357,-0.6196534088224173
1615025473737959700,0.856959716796875,0.16255699882656335,0.1944336078196764,-0.5444280719682574
1615025473747891700,0.8668916015625,0.17057225523889064,-0.0029670331120491026,-0.4375894532322883
1615025473757823500,0.876823486328125,0.05105447993278503,-0.08577157304883003,-0.24071166713088749
1615025473767755500,0.886755615234375,0.10830722998380661,-0.14289455924034117,-0.054878422135114666
1615025473777687600,0.8966875,0.33031858055889607,-0.2761445073008537,0.03358399743288755
1615025473787619600,0.90661962890625,0.3963502648711204,-0.4107552223205566,0.09716770407110452
1615025473797551600,0.916551513671875,0.6326900005280971,-0.601637859660387,0.08461188161969184
1615025473807483600,0.926483642578125,1.0160241319596768,-0.6188730720996857,0.1923544634580612
1615025473817415400,0.93641552734375,0.8498656015098095,-0.48244449400305744,0.3944438467279076
1615025473827347500,0.946347412109375,0.9270373962566256,-0.4961760822355747,0.31547289360463615
1615025473837279500,0.956279541015625,1.913302057507634,-0.9343933119773864,-0.09522738365828991
1615025473847211500,0.96621142578125,4.471959535849094,-1.7947627718448638,-0.740468822723627
1615025473857143600,0.9761435546875,3.690491178739071,-1.3804063101619481,-0.5727770913571119
1615025473867075300,0.986075439453125,1.825223376560211,-1.240351942783594,-0.1793055967926979
1615025473877007400,0.99600732421875,0.8299044712379574,-0.7209726796150208,0.2186100176990032
1615025473886939600,1.005939697265625,-0.06265899300873279,0.04746317744255066,0.7994780610531568
1615025473896871700,1.01587158203125,-0.16575199547559022,0.553196192574501,0.9351870927035808
1615025473906803700,1.0258037109375,0.11985562895834445,0.5861112047046423,0.7268781042665243
1615025473916735700,1.03573583984375,-0.3031467882558703,0.6175391931474209,0.6010287878513336
1615025473926667500,1.04566748046875,-1.0815846916288137,0.7202256606400013,0.6885761384010315
1615025473936599600,1.055599609375,-1.70621457368955,0.8065560366153717,0.7153504558190703
1615025473946531600,1.065531494140625,-2.114671455939859,0.7913292413890362,0.6533493421971798
1615025473956463600,1.075463623046875,-2.3371277738034726,0.4898106388568878,0.5305275569096207
1615025473966395600,1.085395751953125,-2.530615040683746,0.1192868891596794,0.31148557753413914
1615025473976327700,1.09532763671875,-2.293282202336192,-0.14236965858340261,0.12940350176542997
1615025473986259500,1.105259521484375,-1.6587667399466037,-0.568966593158245,-0.07002952177673578
1615025473996191500,1.11519140625,-1.1271207004010677,-1.0876689799785613,-0.19406126737594603
1615025474006123500,1.12512353515625,-1.1288264814056455,-3.4723084465414282,-0.22103812162876127
1615025474016055600,1.1350556640625,-1.4134370576262474,-3.8315345571547743,-0.18118278884142636
1615025474025987600,1.144987548828125,-0.5463274027835577,-0.2559919461101293,-0.13312982881218194
1615025474035919600,1.154919677734375,0.7342115889597683,0.8715706528395414,-0.160864223434031
1615025474045851400,1.164851318359375,1.1890654076606035,1.058956095713377,-0.23133973541259764
1615025474055783400,1.174783447265625,1.0813970601022243,0.6302396847665309,-0.1303562724456191
1615025474065715500,1.184715576171875,0.9005284517765044,0.020877368333935737,-0.11104074660092592
1615025474075647500,1.1946474609375,0.46932493672166015,-0.093811671641469,0.040113399201631546
1615025474085579500,1.20457958984375,-0.010393383720517157,-0.12608370969295501,0.24478403113633393
1615025474095511600,1.214511474609375,-0.8272562948167324,-0.345283509978652,0.19277590374052522
1615025474105443600,1.224443603515625,-1.7217501426041126,-0.3619745325386524,0.011253215420246123
1615025474115375600,1.234375732421875,-2.2993127146720886,-0.3464969774216413,-0.2898608979642391
1615025474125307600,1.2443076171875,-2.323427749752998,-0.2292448089599609,-0.530629555979371
1615025474135239700,1.25423974609375,-1.7911562717854976,-0.15280863501131534,-0.6614125294044614
1615025474145171700,1.264171630859375,-1.0743687689006327,-0.5153939929246902,-0.818131323596835
1615025474155102500,1.2741025390625,-1.1110896030545234,-0.7616220853894948,-0.954042015299201
1615025474165035500,1.284035400390625,-1.3973510152220725,-0.7030962466627358,-0.8130258171513676
1615025474174966500,1.293966552734375,-1.229434242928028,-0.7579495343565941,-0.5134709159076214
1615025474184899600,1.303899658203125,-0.08290273961424827,-0.7219394788205623,-0.1999403885424137
1615025474194830600,1.31383056640625,0.8868529776453972,-1.5944243238955735,-0.143555068975687
1615025474204762400,1.323762451171875,0.6661071169614792,-4.328686206424236,-0.5671247646838427
1615025474214694400,1.3336943359375,0.6500082150757313,-2.9314006576538083,-0.9690139589816331
1615025474224626400,1.34362646484375,1.6353168907761573,-1.3080009991645811,-1.1791025243118405
1615025474234558500,1.353558349609375,1.7495067490577696,-0.8962123421430587,-1.231096038660407
1615025474244490500,1.363490478515625,1.1034512171305715,-1.3948071759581564,-0.9218976952806115
1615025474254422800,1.3734228515625,0.18395963314361868,-1.6967776139110327,-0.9295698373436927
1615025474264354600,1.3833544921875,-0.345488677161932,-1.699960335600376,-1.6803306292399762
1615025474274286600,1.39328662109375,-0.17817739648036657,-1.6259528501033782,-2.054181185272336
1615025474284218600,1.403218505859375,-0.6325193932015448,-0.6171756205320358,-1.757396917785704
1615025474294150700,1.413150634765625,-0.8332219252228736,0.6072679745018482,-1.6793199908927081
1615025474304082700,1.423082763671875,-0.5558521869760006,1.8764286631405351,-1.5508040856167673
1615025474314014700,1.4330146484375,-0.3411923682074994,2.5847867758542296,-1.3859043230563401
1615025474323946800,1.44294677734375,-0.14604520529098808,3.0184798061698674,-1.2607304216846822
1615025474333878800,1.452878662109375,0.17939210603237152,4.1078433151066305,-1.0036980266109108
1615025474343810600,1.462810546875,0.0777121121685952,5.177400884333252,-0.6623660307370126
1615025474353742600,1.47274267578125,-0.26955701866932213,5.894564234793186,-0.3201623665951192
1615025474363674600,1.482674560546875,-0.7462230023361742,5.948689208212494,0.015266104323416947
1615025474373606700,1.492606689453125,-1.4369079495847223,5.232373999014497,0.3868501767285168
1615025474383538700,1.50253857421875,-2.1351872974850234,3.872254105556011,0.7095840012468397
1615025474393470500,1.512470458984375,-2.46760825715065,2.253819375997782,0.796866709510982
1615025474403402500,1.522402587890625,-2.133060514589399,0.9995786085933446,0.5724534123606979
1615025474413334500,1.53233447265625,-1.381174956446886,0.15165186619162557,0.23043109613507984
1615025474423266600,1.5422666015625,-0.6181925424896181,-0.37076691080331803,-0.0782515528075397
1615025474433198600,1.552198486328125,-0.09016834670305252,-0.696887455150485,-0.22024346411973236
1615025474443130600,1.562130615234375,0.24612799309119582,-0.875569951608777,-0.3278326820272952
1615025474453062700,1.572062744140625,0.5053482535980641,-0.9322545463830232,-0.3412530123535544
1615025474462994700,1.58199462890625,0.6100701724410057,-0.8738350906401872,-0.2701496508002281
1615025474472926700,1.5919267578125,0.5049330969259143,-0.6519272004395723,-0.045259456853196024
1615025474482858800,1.601858642578125,0.30651494951471686,-0.43574528667032714,0.30666086079142985
1615025474492790800,1.611790771484375,0.08965952039808034,-0.35344109747111796,0.6772949389953166
1615025474502722800,1.621722900390625,-0.16339491095542907,-0.2993932809412479,1.02907299862504
1615025474512654600,1.631654541015625,-0.2903590567447245,-0.2999737111777067,1.324654027801752
1615025474522586600,1.641586669921875,-0.34366029269099235,-0.3161380795150995,1.5421733276546001
1615025474532518700,1.6515185546875,-0.2829291990049183,-0.28978023394346236,1.6796455695852637
1615025474542450700,1.66145068359375,-0.24437574259638783,-0.27408699024915695,1.7999363750904798
1615025474552382700,1.6713828125,-0.312232742639631,-0.22526070775985715,1.8571248277336359
1615025474562314800,1.681314697265625,-0.4755507889665663,-0.13264847503602503,1.8394471322238444
1615025474572246500,1.69124658203125,-0.6886252382397652,-0.1872492492735386,1.9401248902425168
1615025474582178600,1.701178466796875,-0.8805917252935469,-0.1916618050187826,1.945391432468593
1615025474592110600,1.711110595703125,-0.9709564713515341,-0.1261141048312187,1.81554603215456
1615025474602042600,1.721042724609375,-0.8702009719215333,-0.13783435324132443,1.5796958335801958
1615025474611974700,1.730974609375,-0.6456837760053574,-0.1405798525571823,1.2512407088056205
1615025474621906700,1.74090673828125,-0.5236616166628897,-0.1332996324211359,0.9409197180714458
1615025474631838500,1.75083837890625,-0.4490227013945579,-0.0839735837161541,0.7711036149621009
1615025474641770500,1.7607705078125,-0.13026552542224526,-0.08140694809854031,0.7659471820469945
1615025474651702500,1.77070263671875,0.2975939764343202,-0.2926473138123751,0.7630999759223311
1615025474661634600,1.780634521484375,1.009911055906862,-0.26014789674580097,0.5714340792503207
1615025474671566800,1.79056689453125,1.2813232739888132,0.29355390726327896,0.329061200908944
1615025474681498600,1.80049853515625,1.182738250465691,0.7444049931287765,0.3263295839879662
1615025474691430700,1.8104306640625,0.5918443415291607,0.9124819244205952,0.26835290357656777
1615025474701362700,1.82036279296875,0.2564297530055046,0.8936743480980396,0.19727993716150521
1615025474711294700,1.830294677734375,0.014894786792993544,0.8332318620949983,0.12664952688217163
1615025474721226800,1.840226806640625,-0.293462429587543,0.8220464512139558,0.03395261154957115
1615025474731158800,1.85015869140625,-0.6517994824066757,0.7923287738204002,-0.08700790991075337
1615025474741090600,1.860090576171875,-1.0002318118050695,0.7692600329220295,-0.23406368048377332
1615025474751022600,1.870022705078125,-1.3991793996930122,0.7401449975967407,-0.3820207107454538
1615025474760954600,1.87995458984375,-1.881548198111355,0.663315440416336,-0.5231255370248109
1615025474770886700,1.88988671875,-2.392278875400126,0.5202057771205901,-0.6102619686860591
1615025474780818700,1.899818603515625,-2.6659017552688717,0.32613048121929167,-0.5520628776956349
1615025474790750700,1.909750732421875,-2.513205932982266,0.12498130140900611,-0.37488114118911325
1615025474800682500,1.9196826171875,-1.9673779310882091,-0.006531447595357894,-0.05027063607871532
1615025474810614500,1.929614501953125,-1.339188895241171,-0.006288286489248275,0.27296171254627405
1615025474820546600,1.939546630859375,-0.8843266740381717,0.11516367174983023,0.5375508796751499
1615025474830478600,1.949478515625,-0.6469087877556682,0.252430454236269,0.7514330651346594
1615025474840410600,1.95941064453125,-0.5058288767218589,0.2924842322051525,0.8624249310925602
1615025474850342700,1.9693427734375,-0.42843671722263094,0.22724340600967405,0.886370527890697
1615025474860274400,1.9792744140625,-0.38834669889658685,0.10621756422817706,0.7954241825524717
1615025474870206700,1.989206787109375,-0.4261914225138724,-0.06943944692909718,0.6119143024703487
1615025474880138800,1.999138671875,-0.5752630629539489,-0.2567956637084484,0.4161290243133902
1615025474890070800,2.00907080078125,-0.7663374234735966,-0.35721009461581704,0.20524287886470555
1615025474900002800,2.0190029296875,-0.9746972653150557,-0.3470084340751171,0.019043138644099233
1615025474909934800,2.028934814453125,-1.2029136080101133,-0.25222294896543024,-0.1111095009882003
1615025474919866600,2.03886669921875,-1.4371340134255588,-0.11591828950941561,-0.17534611857719717
1615025474929798700,2.048798583984375,-1.608686950264871,-0.0038040684580802914,-0.13683887593057006
1615025474939730700,2.058730712890625,-1.7023323254287241,0.1270470017671585,0.0172343356564641
1615025474949662700,2.068662841796875,-1.6827625325620172,0.2436380759716034,0.26920827829688787
1615025474959594800,2.0785947265625,-1.599376685605943,0.321601605618,0.5980004164734855
1615025474969526500,2.088526611328125,-1.535048882602155,0.33297990872263905,0.9908908597469329
1615025474979458600,2.09845849609375,-1.575609148788452,0.30523908436000347,1.4043515416339039
1615025474989390600,2.108390625,-1.7369243308603763,0.30888708547353744,1.8339494115903971
1615025474999322600,2.118322509765625,-2.0700442325755954,0.3890051628053188,2.258255312618613
1615025475009254700,2.128254638671875,-2.566544432199001,0.4686918629825115,2.662261937461793
1615025475019186700,2.138186767578125,-3.153363492912054,0.4673942243874073,2.9956685471639037
1615025475029118500,2.148118408203125,-3.6960479360833762,0.37914778565764423,3.175885413582623
1615025475039050500,2.158050537109375,-4.1253804331019515,0.21091244893372058,3.1725068770602345
1615025475048982500,2.167982421875,-4.271422058196365,0.10618190839290619,3.052583735823631
1615025475058914600,2.17791455078125,-3.9464787409350275,0.4502829305887222,3.120251789166033
1615025475068846600,2.1878466796875,-3.1316239547908302,1.1592939542531966,3.3736832371383905
1615025475078778600,2.197778564453125,-2.4421444378092882,1.7218670469820498,3.566370878073573
1615025475088710700,2.207710693359375,-2.2366173351757226,2.0340712941795585,3.7307255739718674
1615025475098642700,2.217642578125,-2.4557424627900124,1.8844068024128675,3.662571782939136
1615025475108574700,2.22757470703125,-2.910425674164295,1.5354267760038376,3.2112223921626804
1615025475118506800,2.2375068359375,-3.191372028788924,1.621098395809531,2.7769185364723206
1615025475128438800,2.247438720703125,-3.034174803429842,2.0708032342493534,2.4370152582272886
1615025475138370800,2.257370849609375,-2.678351779258251,2.353247718477249,1.9950164641201495
1615025475148302600,2.267302490234375,-2.4590710226908326,2.2783728024959564,1.2757976424351334
1615025475158234600,2.277234619140625,-2.4232138196289537,2.0010995834261176,0.26622370952814817
1615025475168166700,2.287166748046875,-2.298772908706963,1.7490034757107495,-0.8422861061662436
1615025475178098700,2.2970986328125,-1.536357480982691,1.6928928814321755,-1.6837173490688204
1615025475188030700,2.30703076171875,-0.0721298550568521,1.915959878540039,-2.269958609893918
1615025475197962800,2.316962646484375,1.887722941223532,2.4218460384070872,-2.745739846615493
1615025475207894500,2.32689453125,3.693822953510284,3.0151445242673156,-3.163361739835143
1615025475217826600,2.33682666015625,4.619566510564089,3.3894682507693767,-3.4213360919341445
1615025475227758600,2.346758544921875,4.680968196988106,3.368507880327105,-3.53866220241487
1615025475237690600,2.356690673828125,4.170784632188082,3.0967537169396877,-3.6510216303989287
1615025475247622700,2.36662255859375,3.4545886654555797,2.727785379990935,-3.845979846614599
1615025475257554400,2.376554443359375,1.934611972039938,2.2065286325126885,-3.754733933807909
1615025475267486500,2.386486572265625,0.5075742590844631,1.3657201976835727,-3.2682410411968825
1615025475277418500,2.39641845703125,-0.4619709572296589,0.4805465514272451,-2.4758193283960224
1615025475287350500,2.4063505859375,-1.2188952401917428,-0.031219898650050162,-1.5863342486813663
1615025475297282800,2.41628271484375,-1.4121772668235004,-0.2971481323629617,-0.7217486324235797
1615025475307214800,2.42621484375,-1.1356459521621465,-0.33694881235361096,-0.05405599983632564
1615025475317147000,2.43614697265625,-0.7003956824671477,-0.39030981566309925,0.3921168650850653
1615025475327079000,2.446078857421875,0.2210031964458525,-0.5723439606368541,0.5482452556362375
1615025475337011000,2.456010986328125,1.4749797599561512,-0.7534639133751392,0.3874371828362346
1615025475346942700,2.465942626953125,2.335668807166815,-0.872763077494502,0.054223173096776
1615025475356874800,2.475874755859375,2.8096546849042174,-0.9487842409014702,-0.4105085540831089
1615025475366806800,2.485806884765625,3.0286212609559295,-0.973079893246293,-0.9127522657945751
1615025475376738800,2.49573876953125,2.9954835459858176,-1.0084393759191035,-1.3760881547018884
1615025475386670800,2.5056708984375,2.8551404247939587,-1.0033616342633962,-1.7671055341124533
1615025475396603000,2.515602783203125,2.6052412426009774,-0.9407949957132339,-2.094863908794522
1615025475406533600,2.52553369140625,2.449146425525844,-0.8798246864438056,-2.3235268262133
1615025475416466700,2.535466796875,2.3737188440978527,-0.8642951088786125,-2.433383623726666
1615025475426397700,2.545397705078125,2.460023208849132,-0.913192703038454,-2.5094655774101615
1615025475436329700,2.555329833984375,2.729785029375553,-1.0161199935495853,-2.563784904357791
1615025475446261800,2.56526171875,3.0120322374656796,-1.119590889418125,-2.5744211569234725
1615025475456193800,2.57519384765625,3.249453338618576,-1.2408528780430554,-2.4887837316483257
1615025475466125800,2.585125732421875,3.342541664421558,-1.3572352779328822,-2.324817742806673
1615025475476057900,2.595057861328125,3.231743202143907,-1.5387737483441828,-2.090160261148214
1615025475485990000,2.604989990234375,2.9520944861143827,-1.7509663002163172,-1.5894621714435517
1615025475495922000,2.614921875,2.502603290425241,-1.9898902071475981,-0.9574222323220223
1615025475505853700,2.624853759765625,2.036380155643821,-2.226824401566386,-0.2704673384472728
1615025475515785700,2.63478564453125,1.557972077549994,-2.3617805690228937,0.5528186644989996
1615025475525717800,2.6447177734375,1.1441773414030671,-2.3733833285331727,1.4109420259401202
1615025475535649800,2.65464990234375,0.8005044814914465,-2.2392110049307345,2.0356497955426573
1615025475545581800,2.664581787109375,0.39813305663466453,-1.9990859055161474,2.529627198690176
1615025475555513900,2.674513916015625,0.0396796839594841,-1.6506839712560175,2.833138436344266
1615025475565445600,2.684445556640625,-0.2608905318066478,-1.2440899602681397,2.9525395995333787
1615025475575377700,2.694377685546875,-0.6211790109544992,-0.916950594267249,2.9687063059583303
1615025475585309700,2.704309814453125,-0.9737278357610106,-0.7312842302709818,2.84124400138855
1615025475595241700,2.71424169921875,-1.204277589839697,-0.7010211939543485,2.6130890334919092
1615025475605173800,2.724173828125,-1.3961150436863303,-0.7507780352920294,2.281202765224874
1615025475615105800,2.734105712890625,-1.6069102959811687,-0.6881938610851764,1.9022776824072003
1615025475625037600,2.74403759765625,-1.7539011846244335,-0.4954273096948862,1.5067223673060535
1615025475634969600,2.753969482421875,-1.830732495370507,-0.1673889490276575,1.0790127953141928
1615025475644901600,2.763901611328125,-2.0521528943151233,0.08228080832362175,0.6358791519582271
1615025475654834000,2.773833984375,-2.328121168266237,0.2752472662001848,0.13565679000653325
1615025475664766000,2.783765869140625,-2.8051205486059185,0.41351884181499476,-0.4044131598174572
1615025475674698000,2.793697998046875,-3.627136020159721,0.5367816488683224,-0.9762488786712288
1615025475684629800,2.803629638671875,-4.882010701553523,0.6642828241437673,-1.519448285627365
1615025475694561800,2.813561767578125,-6.271372763848304,0.8348445579886435,-1.912584264627099
1615025475704493800,2.823493896484375,-6.81917148129344,1.044119761109352,-2.146534182538092
1615025475714425900,2.83342578125,-5.85828179205656,1.0762941840052604,-2.198821419136226
1615025475724358000,2.84335791015625,-4.576940251758694,0.5845920323133468,-2.117657047621906
1615025475734290000,2.8532900390625,-3.9180759455323217,-0.8324632158100604,-1.9358473590537904
1615025475744221700,2.8632216796875,-3.6558272771149873,-3.000492314058542,-1.8093939392656087
1615025475754153700,2.87315380859375,-2.772646265980601,-5.117741657662392,-1.7217027963310478
1615025475764085800,2.883085693359375,-0.8599018423557281,-6.60434098213315,-1.739625406512618
1615025475774017800,2.893017822265625,1.106414889241755,-6.82717241691947,-2.226188441750407
1615025475783949800,2.90294970703125,3.6302091439947484,-4.779049801033735,-3.3254429378435013
1615025475793881600,2.912881591796875,7.0350108652353285,-1.1260983716160058,-4.020351494136452
1615025475803813600,2.922813720703125,9.192358994993567,2.563982472756505,-3.747768478709459
1615025475813745700,2.93274560546875,9.735043730425835,6.22318887091577,-4.020537079836428
1615025475823677700,2.942677734375,9.341182359761,10.081184734016656,-4.8758740984946485
1615025475833609700,2.952609619140625,6.283346110236645,13.295266022741794,-5.608973853754997
1615025475843541800,2.962541748046875,-16.044915444016457,17.62130083787441,-3.511655245284736
1615025475853473500,2.9724736328125,-15.882961964040994,12.531256165432929,-1.0264105014175176
1615025475863405800,2.98240576171875,-1.9296306764960287,4.464530262631178,-0.16537293303012848
1615025475873337900,2.992337890625,4.388476073737443,-0.07065116080641747,0.972769000666216
1615025475883270000,3.002269775390625,8.683221139854192,-3.066407093992829,1.279664546996355
1615025475893202000,3.012201904296875,10.021754055404662,-4.683370581954717,1.0839756784185766
1615025475903134000,3.022134033203125,8.643868788152933,-5.781739819645881,1.1051385856956242
1615025475913065700,3.032065673828125,6.748302878344059,-6.4726435242116445,1.391143392753601
1615025475922997800,3.041997802734375,5.7271828845500945,-6.547162466362118,1.3790437896370886
1615025475932929800,3.0519296875,5.692802476042509,-5.804398810699582,1.0602385367393492
1615025475942861800,3.06186181640625,6.27999679980874,-4.438419085296988,0.7286074122771621
1615025475952793900,3.0717939453125,6.891640505176782,-2.7642724053889514,0.532550587169826
1615025475962726000,3.081725830078125,6.6908601586788885,-1.2990537225991488,0.5178159593746066
1615025475972657700,3.09165771484375,6.022243689244985,-0.3845926070600748,0.5474588179662824
1615025475982589700,3.101589599609375,5.263167781206965,-0.02520633744895458,0.5501350514382124
1615025475992521700,3.111521728515625,4.362291538906097,0.09602291795015334,0.5784402316853404
1615025476002453800,3.121453857421875,3.3960774397760627,0.2791407665073872,0.5622148173430934
1615025476012385800,3.1313857421875,2.6736855410128832,0.5414589930295944,0.4652732867106795
1615025476022317800,3.14131787109375,1.817170418485999,0.872037685829401,0.5118719197457656
1615025476032249600,3.15124951171875,-1.1573451582729817,1.3299737615197895,0.9829127204746008
1615025476042181600,3.161181640625,-6.690263946351409,1.8750059368610381,1.225950492465496
1615025476052113700,3.17111376953125,-9.937971025824547,1.8497995994120835,1.1913146478921175
1615025476062045700,3.181045654296875,-8.923964663428068,1.1795032140672206,1.2634043170690537
1615025476071977700,3.190977783203125,-5.573948717603087,0.39821021352410313,1.3085916585341095
1615025476081909800,3.20090966796875,-2.5012837322592736,-0.13193711189627647,1.2852329947784542
1615025476091841800,3.210841796875,-0.4331511785238981,-0.2348188097000122,1.2027508186638354
1615025476101773800,3.22077392578125,0.7047136187314986,-0.15786182674765586,1.1583970054134727
1615025476111705900,3.230705810546875,1.4994272418618202,-0.27717911104559895,1.1259285680070519
1615025476121638000,3.240637939453125,1.999068369859457,-0.5169663568079471,1.219393033646047
1615025476131570000,3.25056982421875,2.0647768135666844,-0.6534463728308677,1.4838672691583632
1615025476141501700,3.260501708984375,1.8794295985221863,-0.562017796933651,1.7917630055069922
1615025476151433700,3.270433837890625,1.580439637684822,-0.38413726450800895,2.0522171917229888
1615025476161365800,3.28036572265625,1.2680955436252057,-0.34719197394847867,2.2934192727193237
1615025476171296800,3.290296875,0.8689162658732384,-0.44878597002923487,2.458980714058876
1615025476181228800,3.300228759765625,0.4889069680154323,-0.5620861859947442,2.544606448896229
1615025476191160600,3.31016064453125,0.09859006502442061,-0.6410580159008502,2.512056762947142
1615025476201092600,3.320092529296875,-0.33849786842651663,-0.6921516588002443,2.334490118776262
1615025476211024600,3.330024658203125,-0.78997687693201,-0.6915384953379631,1.879568130210042
1615025476220957000,3.33995703125,-1.2402044971369206,-0.4809434417903423,1.043485481793806
1615025476230889000,3.349888916015625,-1.5286311245143414,-0.11669687266647814,0.25078444059491156
1615025476240821000,3.359821044921875,-1.7175953610122203,0.30103929458260537,-0.4199562909839675
1615025476250752800,3.369752685546875,-1.8742460584044456,0.7063508645445108,-0.9730001060083507
1615025476260684800,3.379684814453125,-2.1022598642647266,1.0106962149351835,-1.4629659354269504
1615025476270616800,3.389616943359375,-2.314911411950737,1.2592612259149552,-1.8586957303121685
1615025476280548900,3.399548828125,-2.4643746820569037,1.4605249720156193,-2.108610986857116
1615025476290480600,3.409480712890625,-2.4426129321038723,1.5847469794899225,-2.134096433508396
1615025476300412400,3.419412353515625,-2.2742612755239007,1.568223714712262,-1.9364241360284387
1615025476310344400,3.429344482421875,-1.9315514154255389,1.4872422985494136,-1.458771260216087
1615025476320276500,3.4392763671875,-1.477066795363277,1.33590373609066,-0.7674748300056904
1615025476330208500,3.44920849609375,-1.134513879392296,1.0763818622887134,-0.011879019168391822
1615025476340140500,3.459140625,-0.9949966876305639,0.8381623042345047,0.6930041109111159
1615025476350072600,3.469072509765625,-1.0488850758150219,0.6238789175629615,1.232944296875596
1615025476360004400,3.47900439453125,-1.1755310955658553,0.43829847828447815,1.6867362584985792
1615025476369936400,3.488936279296875,-1.2542299537494779,0.28137480916976926,2.050220318817347
1615025476379868400,3.498868408203125,-1.3713716475740074,0.11650047331154345,2.3067107159689066
1615025476389800400,3.508800537109375,-1.5946121015526353,-0.03909340850412845,2.4271555429920553
1615025476399732500,3.518732421875,-2.1396435462415218,-0.17466215490102768,2.31571775989756
1615025476409664500,3.52866455078125,-3.1862922413066026,-0.31510464481413364,1.9947621970981357
1615025476419596500,3.538596435546875,-4.611602107556164,-0.43221594350039955,1.525510800536722
1615025476429528600,3.548528564453125,-5.495996878394484,-0.3622597792208195,0.9477425498288125
1615025476439460600,3.558460693359375,-5.38280012280345,-0.19505378554463385,0.5380426087148488
1615025476449392600,3.568392578125,-4.59496515327096,-0.16317863785624503,0.36680107591226696
1615025476459324700,3.57832470703125,-3.4692984510704874,0.05903261920511722,0.5763052654832601
1615025476469256400,3.58825634765625,-2.1652865215420722,1.1448960110664368,1.06369686049968
1615025476479188500,3.5981884765625,-1.0234605655707418,2.222344625803828,1.5220608062133192
1615025476489120500,3.60812060546875,-0.43416883113384247,3.104494540324807,1.9712461508236825
1615025476499052500,3.618052490234375,-0.34070728810429574,3.9740187820285557,2.4746619750544427
1615025476508984600,3.627984619140625,-0.35617724443674087,4.7433372671395535,2.9079028776884077
1615025476518916600,3.63791650390625,-0.2612181563258171,5.32112312656939,3.210110047006607
1615025476528848400,3.647848388671875,-0.09829437001347541,5.740684755679965,3.245738994270563
1615025476538780400,3.657780517578125,-0.10536708487868308,5.495190822708606,2.788586762434244
1615025476548712400,3.66771240234375,-0.3822247088849544,4.0346424698174,1.5278521029658614
1615025476558644500,3.67764453125,-1.7221604769706724,2.424716625407338,-0.5948030452042817
1615025476568576500,3.687576416015625,-2.9836744502484795,1.3029121515929698,-2.470968673494458
1615025476578508500,3.697508544921875,-2.0048001915097236,0.8403308804452418,-3.4672245674058795
1615025476588440300,3.7074404296875,0.8361071252703666,0.8766881419837474,-4.0956382057890295
1615025476598372400,3.717372314453125,4.2020717508554455,1.0568319431662558,-4.743290505388379
1615025476608304400,3.727304443359375,6.628848231402039,1.1777245139569044,-5.273874468660354
1615025476618236400,3.737236328125,7.315988199520111,1.2104647540420292,-5.54546496591866
1615025476628168700,3.747168701171875,6.591985358428954,0.815166044050455,-5.552175861734152
1615025476638100700,3.757100830078125,3.4267087248831984,0.2839133877366781,-5.214357280808687
1615025476648032500,3.767032470703125,-0.6729724726863205,-0.11917349191308022,-4.618393959653377
1615025476657964500,3.776964599609375,-2.576507607808709,-0.4842272857666015,-3.9335967552691695
1615025476667896600,3.786896484375,-1.769590336665511,-0.6303524974912404,-3.0907503848716615
1615025476677828600,3.79682861328125,-0.15188684399127958,-0.7125380287468432,-2.169332728192955
1615025476687760600,3.8067607421875,0.957103302565962,-0.8521651106238365,-1.172538708816841
1615025476697692700,3.816692626953125,1.8571198592975735,-0.832048205268383,-0.394670641221106
1615025476707624400,3.82662451171875,2.2112889787822962,-0.7232891398638487,0.272581846383214
1615025476717556500,3.836556396484375,2.018199479047954,-0.6062672730267048,1.0784344109043478
1615025476727487500,3.846487548828125,2.9608582228064537,-0.4537520680040121,1.390811384320259
1615025476737420500,3.856420654296875,3.7428342371776697,-0.23473697663545606,1.2806409908130765
1615025476747351300,3.866351318359375,3.932699221907556,-0.11974164718985557,1.1044951001603156
1615025476757283300,3.876283447265625,3.689849373704195,-0.22987492355704306,0.783682818289101
1615025476767215600,3.886215576171875,2.953911764669418,-0.5548311002999544,0.2968121784068644
1615025476777147600,3.896147705078125,2.2024393173724413,-0.9483633851408958,-0.17901421263068915
1615025476787079700,3.90607958984375,1.9211562781393527,-1.2819114491403103,-0.6325711964540183
1615025476797011700,3.91601171875,2.177418565623462,-1.566657196047902,-1.1388177140660583
1615025476806943500,3.925943603515625,2.848132884119451,-1.7701970703870058,-1.6677255608193575
1615025476816875500,3.93587548828125,3.6423274518117306,-2.023611859485507,-2.078731250769645
1615025476826807600,3.9458076171875,4.217634061646462,-2.2945476922273635,-2.291280653255433
1615025476836739600,3.955739501953125,4.37437185280025,-2.5882109050840136,-2.3137314083859324
1615025476846671600,3.965671630859375,4.109615293215215,-2.7744676361888647,-2.126679435250163
1615025476856603600,3.975603759765625,3.5316619682639834,-2.7638924661606548,-1.800261953783035
1615025476866535400,3.985535400390625,2.739018137145042,-2.603833421629667,-1.4668419000774622
1615025476876467500,3.995467529296875,2.0299410625070333,-2.4059797762334347,-1.1724245078526436
1615025476886399500,4.0053994140625,1.4341443300902843,-2.1573557285428047,-0.8337631924927235
1615025476896331500,4.01533154296875,0.8774483127012849,-1.8859978709965943,-0.4313219172701239
1615025476906263600,4.025263671875,0.26772359269708396,-1.5834230374097824,0.004615530971437692
1615025476916195600,4.035195556640625,-0.1617825073227286,-1.2943991747915744,0.4758126547731459
1615025476926127400,4.04512744140625,-0.45605917590260503,-0.9906734176039695,0.8916841971941292
1615025476936059400,4.055059326171875,-0.8234145246967672,-0.7347995449155569,1.3547421459428965
1615025476945991400,4.064991455078125,-1.204934007921815,-0.6058019936025142,1.7954463701948522
1615025476955923500,4.07492333984375,-1.5546373801693318,-0.5458119275420904,2.1372417457967994
1615025476965855500,4.08485546875,-1.8695985248595475,-0.5053676889508962,2.3452087889283892
1615025476975787500,4.09478759765625,-2.194073055565357,-0.4885024788677692,2.381999911839515
1615025476985719600,4.104719482421875,-2.5386826118052004,-0.371345002952218,2.223439873694628
1615025476995651600,4.114651611328125,-2.82807647677958,-0.161955233541131,1.8846137231618165
1615025477005583600,4.12458349609375,-2.8991859027475115,0.1468681390464306,1.454077987833321
1615025477015515600,4.134515625,-2.7958500314354895,0.547944263395667,1.0269240038976073
1615025477025447700,4.14444775390625,-2.8565833170786497,0.9613274961322545,0.6084427173696458
1615025477035379500,4.15437939453125,-3.2123356141015886,1.3441472483009098,0.1510113763310015
1615025477045311500,4.1643115234375,-3.779468269830942,1.648314319515228,-0.35710458841472864
1615025477055243500,4.174243408203125,-4.437686971630156,1.8677742320418356,-0.9153175131727009
1615025477065175600,4.184175537109375,-4.938743519383668,2.00717510394752,-1.4372215455785393
1615025477075107600,4.194107666015625,-4.95932979581654,1.906181411847472,-1.9474043797262013
1615025477085039600,4.20403955078125,-4.449449890138209,1.3981126472443342,-2.590782216876745
1615025477094971400,4.213971435546875,-4.122381543546915,0.2975391775071621,-3.2854555031090973
1615025477104903400,4.2239033203125,-4.299493721948564,-1.483024388593435,-3.6216543738782403
1615025477114835500,4.23383544921875,-4.020352955441177,-3.869925954869389,-3.317737478032708
1615025477124767500,4.243767578125,-2.750029360502958,-6.173686296600103,-2.4932260980099437
1615025477134699500,4.253699462890625,-0.9041036799147725,-7.834702276778221,-1.6676944350287317
1615025477144631600,4.263631591796875,0.8089274419218301,-8.330672022786736,-1.334415543359518
1615025477154563300,4.273563232421875,3.4080729979962108,-6.5894649000406265,-1.8604013651862739
1615025477164495400,4.283495361328125,7.1081894986927505,-2.7902807068705555,-2.941718930311501
1615025477174427400,4.293427490234375,9.923589449250697,2.2654443473398684,-3.760387137264013
1615025477184359400,4.303359375,11.392616876673697,7.003216966089606,-4.138366171403229
1615025477194291700,4.313291748046875,11.952272036129235,11.397377222943305,-4.961030169993639
1615025477204223700,4.3232236328125,10.801028117340802,14.960374825191497,-5.950438682228326
1615025477214155500,4.333155517578125,-0.6068903733611106,17.59797607638836,-4.8297880546242
1615025477224087600,4.343087646484375,-13.326349727791547,12.412785268831252,-0.825737122425437
1615025477234018600,4.3530185546875,-9.364637469628454,2.661908009457588,1.0961143714364618
1615025477243950600,4.36295068359375,-3.3080513657987116,-1.5951882940053939,1.8412667488664387
1615025477253882400,4.37288232421875,4.2473426789507265,-3.2405537005871534,0.8523542765203863
1615025477263814400,4.382814453125,8.04565622676611,-4.600032958054542,0.23272929007485507
1615025477273746400,4.392746337890625,7.779434563064575,-6.557033872035145,0.8392614976480602
1615025477283678500,4.402678466796875,7.052475210255384,-7.632957469162345,1.1196016300078482
1615025477293614000,4.412614013671875,6.628065556591749,-7.743415739700198,1.0618595620699227
1615025477303546000,4.422546142578125,6.459163280391692,-6.744640848705172,0.7798490853451192
1615025477313478100,4.43247802734375,6.82206194203794,-4.948292853495478,0.35748832703530786
1615025477323410000,4.442409912109375,7.383172560998797,-2.8697382744669913,0.035583427621796726
1615025477333342000,4.452342041015625,7.39349814018011,-1.1738923884481192,-0.11622691706717013
1615025477343274200,4.462274169921875,6.6499781131923195,-0.10757482405602932,-0.11516374481506644
1615025477353206300,4.472206298828125,5.646223095697164,0.45204467956423755,-0.18151223999150096
1615025477363138300,4.48213818359375,4.6938276785612105,0.7124567802041769,-0.3091987817712128
1615025477373070300,4.4920703125,3.9407179854512213,0.9484832121282816,-0.3997696448605507
1615025477383002000,4.502002197265625,3.3848616337567567,1.2459423101365565,-0.4287693832430988
1615025477392934100,4.51193408203125,2.729464711380005,1.46822604791224,-0.36705198193341493
1615025477402866200,4.5218662109375,1.8787410317361353,1.5253314984470605,-0.09346322352997959
1615025477412798200,4.531798095703125,-1.7766063529074192,1.600191801381111,1.028153545692563
1615025477422730200,4.541730224609375,-14.498899469459056,2.055335616004467,3.7191689916908737
1615025477432662300,4.551662353515625,-13.308688983416557,1.6690835512995719,4.470561651749908
1615025477442594000,4.561593994140625,-7.19103378611803,0.5264414566397667,4.569367770677805
1615025477452526000,4.571526123046875,-3.730905022192001,-0.1081114151507616,4.564505133077502
1615025477462458000,4.5814580078125,-1.9978642547667025,-0.18129940095841884,4.126068415366113
1615025477472390100,4.59139013671875,-1.0522668272078037,0.17092472193837166,3.298150441770255
1615025477482322200,4.601322265625,-0.2088016673248261,0.43017771567106244,2.457087155397236
1615025477492254200,4.611254150390625,0.3978724329371005,0.3999865755468607,1.9191309097915887
1615025477502186000,4.62118603515625,0.6690192780811339,0.13893091630637644,1.7048786489106713
1615025477512118000,4.631117919921875,0.7258839055974036,-0.21731413266956806,1.6227232205323874
1615025477522050000,4.641050048828125,0.697894586366415,-0.6080331136554479,1.6171834143228827
1615025477531982000,4.650982177734375,0.6428441686652601,-1.016570075404644,1.5660387718886135
1615025477541914000,4.6609140625,0.5924376312471926,-1.2662415863215923,1.4159341351389885
1615025477551846100,4.67084619140625,0.44265155892744656,-1.3591747215628622,1.2645508567556738
1615025477561778200,4.680778076171875,0.21992862601689994,-1.373587862318754,1.0694522822212427
1615025477571710200,4.690710205078125,-0.0905564692378044,-1.2527210104912518,0.7464024505563079
1615025477581642200,4.700642333984375,-0.4413935216903686,-0.9898919118374585,0.3280903831154108
1615025477591574300,4.71057421875,-0.8044927474100142,-0.5416185675054789,-0.12077690852172672
1615025477601506300,4.72050634765625,-1.1740182067848741,0.005591536396741867,-0.5695567410711199
1615025477611438000,4.73043798828125,-1.6520247183404861,0.5190080917686224,-1.0183546937990933
1615025477621370000,4.7403701171875,-2.252712437669188,0.8749924439817667,-1.4719212491683662
1615025477631302100,4.75030224609375,-2.855408135819435,1.1389151830911635,-1.8966661261357365
1615025477641234200,4.760234130859375,-3.2235330076813695,1.458130770355463,-2.1930964656181633
1615025477651166200,4.770166259765625,-3.1689351560533043,1.9157780922323464,-2.1798478385969995
1615025477661098200,4.78009814453125,-2.8291461518377066,2.326958261966705,-1.718531034427136
1615025477671030000,4.790030029296875,-2.383775835470855,2.544060213190317,-0.8056500276863574
1615025477680962000,4.799962158203125,-2.008936414531618,2.5124679740965363,0.3201141435392201
1615025477690893000,4.80989306640625,-1.8066216980732976,2.2429127820581196,1.4963142244078218
1615025477700825000,4.8198251953125,-1.7681801776066421,1.8848188903450964,2.458268474136293
1615025477710757400,4.82975732421875,-1.8478747688293455,1.569555255576968,3.1325147661507127
1615025477720689200,4.839689208984375,-1.957516170026362,1.2659107469320297,3.580900923207402
1615025477730621200,4.84962109375,-2.1036814215004442,1.036238652470708,3.884609144738316
1615025477740553200,4.85955322265625,-2.385523555921018,0.9104816905140877,4.1237586771190164
1615025477750485200,4.8694853515625,-3.1265935594081875,0.7082534832954406,4.102884815916418
1615025477760417300,4.879417236328125,-4.310423696763813,0.45862522699832914,3.3994051228940485
1615025477770349000,4.88934912109375,-5.219720853668451,0.4893862759649753,2.3185623356737195
1615025477780281000,4.899281005859375,-5.234048654228449,0.6937409738183021,1.0613882912963628
1615025477790213000,4.909213134765625,-4.71386713476628,0.9367261388391256,-0.10489712927937507
1615025477800145200,4.919145263671875,-3.968632120554149,1.4380711481451987,-0.8029656109079718
1615025477810077200,4.9290771484375,-2.960336829280853,2.1041642365813256,-0.8345527354352176
1615025477820009200,4.93900927734375,-1.8476254702433943,3.089063746958971,-0.314921104940772
1615025477829941000,4.94894091796875,-0.8955120849192142,4.098229683586955,0.34660511397123334
1615025477839873000,4.958873046875,-0.4292215839900076,4.915137018346786,0.8836027436777949
1615025477849805000,4.96880517578125,-0.5993313362836837,5.165417601072788,1.0386622263558207
1615025477859737000,4.978737060546875,-1.3995735135771334,4.263135583627224,0.6932594739116728
1615025477869669000,4.988669189453125,-2.3690052595794198,2.370544890236854,0.050408729375153775
1615025477879601200,4.99860107421875,-2.5548294444859025,0.6989157461076975,-0.5341501313209533
1615025477889533000,5.008532958984375,-1.230273616361618,-0.2162397814363241,-0.8708730259642005
1615025477899465000,5.01846484375,0.7711649897605181,-0.3637105625510216,-1.3884439245365559
1615025477909397200,5.028397216796875,2.6743343603104353,0.11137012468576431,-1.9777849049426615
1615025477919329300,5.038329345703125,4.526756124919653,1.0642331593334675,-2.6707828053086993
1615025477929261300,5.04826123046875,6.159138715809584,2.070917800539732,-3.4458477251172064
1615025477939193300,5.058193359375,7.262410338589548,2.9861195053130385,-4.2579292471557855
1615025477949125000,5.068125,7.459119490125775,3.6703164057165383,-5.100851897659897
1615025477959057200,5.07805712890625,6.087022158625722,3.817854991370439,-5.501971276628971
1615025477968989200,5.0879892578125,2.047714181215316,3.621554420635104,-5.348876225891709
1615025477978921200,5.097921142578125,-2.6475878076821564,2.496204237037897,-4.222257629793882
1615025477988853200,5.107853271484375,-4.154543399222195,0.6829162129431963,-2.5850802058428526
1615025477998785300,5.117785400390625,-2.862358393348753,-0.503191513955593,-1.16288218800351
1615025478008717000,5.127717041015625,-0.7699950691983103,-1.3122288459926843,-0.04773264203369617
1615025478018649000,5.137649169921875,0.9663476623818278,-2.006855954995751,0.8485835258100182
1615025478028581000,5.1475810546875,2.017650905254483,-2.4439286908775566,1.6049404572129249
1615025478038513200,5.15751318359375,2.900015047048032,-2.5718495528697964,2.0557807294234633
1615025478048445200,5.167445068359375,3.935424262957275,-2.376604628667235,1.9868967244200408
1615025478058377000,5.177376953125,4.563714859482646,-2.0780629961192605,1.547061684218049
1615025478068309000,5.18730908203125,4.627641388209164,-1.7636825739264488,0.8129166576884687
1615025478078241000,5.197240966796875,4.190559007716178,-1.6522119114756584,0.03050970455408096
1615025478088172300,5.20717236328125,3.8047511796474454,-1.7273486932635307,-0.572050384517759
1615025478098104300,5.217104248046875,3.7964869169101116,-1.9402286428779363,-1.0231630439288915
1615025478108036000,5.2270361328125,3.9610029408499594,-2.2145886048495766,-1.312116471659392
1615025478117968100,5.236968017578125,4.150563097414374,-2.4877947206109763,-1.509147840887308
1615025478127900200,5.246900146484375,4.297106534551084,-2.684543619635701,-1.619189493448287
1615025478137832200,5.256832275390625,4.310310884039104,-2.7121155171722173,-1.6376248754575848
1615025478147764200,5.26676416015625,4.216986411392688,-2.609585701546073,-1.6306740334063767
1615025478157696300,5.2766962890625,4.024816656851768,-2.443592590790987,-1.5553548807889221
1615025478167628000,5.2866279296875,3.7076284837618467,-2.3130840503931043,-1.437799199336022
1615025478177560000,5.29656005859375,3.3037475311249493,-2.1730928113788366,-1.2840813405252993
1615025478187492000,5.3064921875,2.827307830494642,-1.9784902767330408,-1.13912195770964
1615025478197424000,5.316424072265625,2.265271913382411,-1.6723352465718984,-0.9168246298000216
1615025478207356200,5.326356201171875,1.6893883804425596,-1.3298223703503609,-0.5979195697896182
1615025478217288200,5.3362880859375,1.2080179454118012,-0.9636199909836053,-0.2863713022828102
1615025478227220000,5.346219970703125,0.6815574918106198,-0.5804536173343658,-0.015040186613053083
1615025478237152000,5.356152099609375,-0.07261836922615766,-0.1340630180090666,0.2719413565225899
1615025478247084000,5.366083984375,-1.0683820957064627,0.41373336134850974,0.5268757564038038
1615025478257016000,5.37601611328125,-2.133807095173001,0.9697989718794822,0.6672483959510922
1615025478266948000,5.385947998046875,-3.143038790513575,1.430056768515706,0.6089825233347713
1615025478276880100,5.395880126953125,-4.066135924711824,1.6350579475790261,0.4457390035487711
1615025478286812200,5.405812255859375,-4.683397469961643,1.527969445735216,0.30090690037459134
1615025478296740000,5.415739990234375,-4.819328912191093,1.1827432189017533,0.2178653368115425
1615025478306672000,5.425672119140625,-4.5660243054687975,0.8114595907479524,0.09421981405094265
1615025478316604000,5.43560400390625,-4.670134083762765,0.7621540003091096,-0.14717588982135058
1615025478326536000,5.445535888671875,-5.381234188660979,1.0981535491138696,-0.5613961579039692
1615025478336468000,5.455468017578125,-5.573431415730714,1.9354127670288084,-1.1658948138229548
1615025478346400000,5.46539990234375,-4.11956502482146,3.1041578557163474,-1.9196018883042036
1615025478356332000,5.47533203125,-2.1588342766627666,3.7869343679279086,-2.6691508201926943
1615025478366264000,5.48526416015625,-1.0815855684116482,3.438595562031865,-3.203261204025149
1615025478376195800,5.49519580078125,-1.3127709900453686,1.6348218007355928,-3.432293247017264
1615025478386128000,5.5051279296875,-2.6147584280088543,-1.761158608406782,-3.1820573802158236
1615025478396060000,5.515059814453125,-2.9598966842979193,-5.370081511005759,-2.488739892506599
1615025478405992000,5.524991943359375,-1.1062623290285467,-7.913711516085266,-1.964073774976283
1615025478415924000,5.534924072265625,1.2366206473007797,-9.557509234958886,-1.8923022318378089
1615025478425856000,5.54485595703125,2.929258384928107,-10.289673170673847,-2.2269563573829827
1615025478435788000,5.5547880859375,4.483478708729147,-9.4323794649899,-3.0223978563964367
1615025478445720000,5.564719970703125,6.1473418950319285,-6.136883044859767,-3.9685821439325806
1615025478455652000,5.574652099609375,7.470602422648668,-1.9121990647017955,-4.536942003369331
1615025478465584000,5.584584228515625,8.620029062882065,2.1199176860302686,-4.997559280967712
1615025478475515100,5.59451513671875,8.874492484250665,6.470332324659824,-6.170975868597626
1615025478485447000,5.604447021484375,6.9868690578788515,11.226874525809288,-7.360352826425433
1615025478495379000,5.61437890625,-3.4447225204795595,16.879578800219296,-6.877026288890838
1615025478505311000,5.62431103515625,-12.197150467550754,18.522016336655614,-3.3239521147638555
1615025478515243000,5.634242919921875,-3.1196339495286343,11.450699647808074,-0.5642796043857932
1615025478525175000,5.644175048828125,-1.1141318933598696,5.338222145408392,3.327586671873927
1615025478535107000,5.654107177734375,1.2876299729175864,-0.5449719695866108,6.451491430589556
1615025478545038800,5.664038818359375,7.271741061514615,-4.788678630122542,5.268302221485972
1615025478554971000,5.673970947265625,7.998370743978023,-6.20155454673469,3.7488586120337244
1615025478564903000,5.68390283203125,5.972640577164292,-6.961286288332939,3.6217081498920916
1615025478574835000,5.6938349609375,4.666211357361078,-7.351628837221861,3.598900105756521
1615025478584767000,5.70376708984375,4.483924698930979,-6.782699068942666,3.205496415731311
1615025478594699000,5.713698974609375,4.88230500832498,-5.3883156713545315,2.654002058638632
1615025478604631000,5.723631103515625,5.597915284124016,-3.4626638353616,2.0641772402383385
1615025478614563000,5.73356298828125,6.126509534883499,-1.6491151145040988,1.6413428730674087
1615025478624495000,5.7434951171875,6.0868847959816454,-0.34578210715055463,1.3871870563432573
1615025478634427100,5.75342724609375,5.492879623156786,0.3574123391896486,1.19070835256204
1615025478644359200,5.763359130859375,4.725914423173665,0.6233154384613037,0.9753472536563873
1615025478654291000,5.773291015625,4.1926831602633,0.6852262434512376,0.6927114846400916
1615025478664223000,5.783222900390625,3.646439271044731,0.730741209435463,0.4467988878652453
1615025478674155000,5.793155029296875,3.0990847902357577,0.9512596911042928,0.25491321096271274
1615025478684087000,5.803087158203125,2.4492571924239397,1.1509820529818535,0.14789587465897203
1615025478694019000,5.81301904296875,-0.052441550377011294,1.2360685663759707,0.2297387299567461
1615025478703951000,5.822951171875,-13.104923483628033,1.6302479169487951,0.713809509987384
1615025478713883000,5.8328828125,-12.70216335171461,1.6971224818259476,1.1463779201872646
1615025478723815000,5.84281494140625,-7.428039876729249,0.596264934450388,1.760511542674899
1615025478733747000,5.852746826171875,-4.575782313895226,-0.07736030305624007,2.0751770654194055
1615025478743679000,5.862678955078125,-2.337630462628603,-0.1815571751117706,2.1404491635359824
1615025478753611000,5.872611083984375,-0.699492669212818,0.1056359649479389,2.0164622799918055
1615025478763543000,5.88254296875,0.3681798169195652,0.3715302963912487,1.8469396799363196
1615025478773474800,5.892474853515625,0.7196060674369334,0.21955402055084705,1.8299492360383272
1615025478783406800,5.90240673828125,0.6613550270635634,-0.12457096704244613,1.8973883029304444
1615025478793339100,5.912339111328125,0.6642436611771583,-0.36166181332767006,1.9333115569658577
1615025478803271200,5.922271240234375,0.8084568287353963,-0.45053193691372867,1.9441265270993113
1615025478813203200,5.932203125,1.1397240883212536,-0.6779097829580306,1.8632669837504625
1615025478823134000,5.942134033203125,1.3239186992645262,-0.8409902211368083,1.7268458583079278
1615025478833066000,5.95206591796875,1.3079904777705669,-0.6523223372370004,1.5363814463801682
1615025478842998000,5.961998046875,1.3095020513772964,-0.13134499122202395,1.2032359718322754
1615025478852930000,5.971929931640625,1.2779869691729544,0.444251833730936,0.7986857416316866
1615025478862862000,5.981862060546875,1.1601309895992278,0.8851818295627832,0.40242461634874344
1615025478872793900,5.9917939453125,1.010284273133427,1.2016302902013063,0.07136983046978712
1615025478882726000,6.001725830078125,0.7351613639652729,1.4483037883460521,-0.14841303040087223
1615025478892658000,6.011657958984375,0.30774975200667976,1.6182605420351028,-0.3035780192799866
1615025478902590000,6.02158984375,-0.3450853570580482,1.7137439462810753,-0.47040977281630036
1615025478912522000,6.03152197265625,-1.5822341198861598,1.6374930657714604,-0.7198407529756427
1615025478922454000,6.0414541015625,-6.337752238684892,0.9013631490349769,-1.5154586314693093
1615025478932386000,6.051385986328125,-8.863305319803953,0.4900935474514961,-1.9940952576220035
1615025478942318000,6.061318115234375,-7.537670464271306,0.7737959227859973,-1.7019038708835839
1615025478952250000,6.07125,-6.185615219324827,0.8784428766965866,-1.273114394700527
1615025478962182100,6.08118212890625,-4.564471523068845,0.7051853278964757,-0.5041586054220796
1615025478972114200,6.0911142578125,-2.932988219106197,0.7543447878628968,0.5276055319830775
1615025478982046200,6.101046142578125,-1.752627365296334,0.80023677046597,1.4909776856854557
1615025478991978000,6.11097802734375,-1.1577765354275702,0.804364079529047,2.1408038221925496
1615025479001910000,6.120909912109375,-0.9747799751624464,0.6293611483663321,2.509052612695098
1615025479011842000,6.130842041015625,-0.9927008317783474,0.2954121023505926,2.808441801983118
1615025479021774000,6.140774169921875,-1.061392529080063,0.008256956213712691,3.06696531239748
1615025479031706000,6.1507060546875,-1.255146045681089,-0.12192834357917308,3.2199376135379074
1615025479041638100,6.16063818359375,-1.8842365604124962,-0.0693505996018648,3.183233145996928
1615025479051570000,6.17056982421875,-3.9545629709303376,-0.11998773090541362,2.8509400504946707
1615025479061502000,6.180501953125,-5.3542450594484805,-0.16439678147435188,2.1470511921495197
1615025479071434000,6.19043408203125,-4.687250638258457,1.0446820711672304,1.4594184720784424
1615025479081366000,6.200365966796875,-4.4522024037167425,2.6805969278365374,0.9819675485789775
1615025479091298000,6.210298095703125,-4.499484379373491,3.8050457786798475,0.5268531061805785
1615025479101229800,6.220229736328125,-3.9761046483919023,4.836974751257896,0.3042106180950999
1615025479111161900,6.230161865234375,-2.9354481794789433,5.6411202196002,0.6848030496031046
1615025479121094000,6.240093994140625,-1.9660953439317643,5.814169094085693,1.4144398049280047
1615025479131026000,6.25002587890625,-1.3235197630748152,5.340208350789546,1.9006125256739557
1615025479140958000,6.2599580078125,-1.1190694958925247,4.346223032158613,1.9102856322959065
1615025479150890000,6.269889892578125,-0.9774410841304808,2.833007503440976,1.7727762732252477
1615025479160822000,6.279822021484375,-0.25115621478306127,1.4037158740788698,1.6617714747205377
1615025479170754000,6.289754150390625,0.9657850600630045,0.6264607507497072,1.2274763868585228
1615025479180685000,6.29968505859375,2.2514544004321095,0.6642296326518058,0.39998672167733307
1615025479190617000,6.3096171875,3.3878590620070694,1.3302262749761342,-0.42115722773894665
1615025479200549000,6.319549072265625,4.639343224179744,2.4541321049839255,-1.372173465476185
1615025479210481000,6.32948095703125,5.990545651689171,3.543693766841292,-2.301600825609267
1615025479220413000,6.339412841796875,6.75505118356049,4.5148312938481565,-3.074540131565928
1615025479230345000,6.349344970703125,7.193264321649074,4.920211252871155,-3.5008208397984504
1615025479240277000,6.359277099609375,5.739300607845187,4.244608577811718,-3.089956896406412
1615025479250209000,6.369208984375,1.380235337509215,2.4603321286678312,-1.8108217801116406
1615025479260141000,6.37914111328125,-3.0962609649866817,0.40232641667127605,-0.35034240080341694
1615025479270072800,6.38907275390625,-5.073828866177797,-1.2101806764036416,0.8947501606360078
1615025479280004900,6.3990048828125,-4.374910781982541,-1.999344264191389,1.6952391522973775
1615025479289937700,6.408937744140625,-1.9282596804037688,-1.9762813685119152,2.0663088454395533
1615025479299869700,6.41886962890625,0.8014522837355732,-1.476409354367852,2.25286704370901
1615025479309801700,6.4288017578125,3.1187831779181954,-1.2054010409116744,2.356009438275546
1615025479319733800,6.438733642578125,4.590902141615748,-1.0435931068867443,2.2907892164766785
1615025479329665800,6.448665771484375,5.123666371536254,-0.9633844286620616,2.1365243913076815
1615025479339597800,6.458597900390625,5.13771710872054,-1.023432946911454,1.8203942028380928
1615025479349529900,6.46852978515625,5.033535434234142,-1.0502823753923176,1.2608992023803294
1615025479359462000,6.4784619140625,4.919487030249834,-1.1504080524861813,0.7812504765756427
1615025479369394000,6.488393798828125,4.911444009047746,-1.3017214805036783,0.3640839259080589
1615025479379326000,6.498325927734375,5.028512053114175,-1.4580693955570458,0.020955402006208896
1615025479389258000,6.508258056640625,5.251863712382316,-1.5602689563155174,-0.28476518226042385
1615025479399189800,6.518189697265625,5.461628744846582,-1.6725702243715523,-0.5467509619578719
1615025479409121800,6.528121826171875,5.434438540104031,-1.8419143991202116,-0.8005778389886021
1615025479419053800,6.5380537109375,5.166261650681496,-1.9642641829818486,-1.0102709752604364
1615025479428985900,6.54798583984375,4.8511289488166565,-1.9994985779702663,-1.2153212541624903
1615025479438918000,6.55791796875,4.5302670556500555,-1.9600468575477599,-1.4508452895224093
1615025479448850000,6.567849853515625,4.17410705460906,-1.90655842846632,-1.6922469847440718
1615025479458781700,6.57778173828125,3.8392575526222585,-1.9039134669154882,-1.8574594665154813
1615025479468713700,6.587713623046875,3.449444288304448,-1.977154644215107,-1.9143547814309596
1615025479478645800,6.597645751953125,2.9142648139357563,-1.9838690471619367,-1.815790362304449
1615025479488577800,6.607577880859375,2.304407115201652,-1.8169196585953236,-1.5610460781678557
1615025479498509800,6.617509765625,1.7367115648925304,-1.5353846904277801,-1.1631067905396222
1615025479508441900,6.62744189453125,1.0919336516857148,-1.069793716070056,-0.6791648975856602
1615025479518372900,6.637372802734375,0.36527123599648476,-0.4196832096636295,-0.2512982353359461
1615025479528305000,6.647304931640625,-0.4228492724791169,0.34267128165364263,-0.07661796025633812
1615025479538237000,6.65723681640625,-1.3694114534169435,0.9126473441153764,-0.14336276127398012
1615025479548169000,6.6671689453125,-2.264174473534524,1.0909358728200196,-0.26659035088345406
1615025479558100700,6.677100830078125,-2.9296225420653816,0.9283744900792836,-0.23415070118010042
1615025479568032800,6.68703271484375,-3.326595615009963,0.5461836834639311,-0.06806903535872698
1615025479577964800,6.69696484375,-3.72399743476063,-0.002555529701709747,0.13086919040381909
1615025479587896800,6.706896728515625,-4.110060698895156,-0.42566696024835105,0.3095180768534541
1615025479597828900,6.716828857421875,-4.579226609130203,-0.20535013863146304,0.5069643104925752
1615025479607761000,6.726760986328125,-5.388302227351069,0.584244826310873,0.7986825267612934
1615025479617692700,6.736692626953125,-5.722223800837993,1.7164473600208758,1.1587686152048409
1615025479627624700,6.746624755859375,-4.96585773628056,2.8443980815052985,1.4921781475163995
1615025479637556700,6.756556640625,-4.331258687260747,3.2737890307128428,1.7237287492007016
1615025479647488800,6.76648876953125,-5.060677123659849,2.4677614018857477,2.016188431486487
1615025479657420800,6.7764208984375,-6.108365390905737,0.4324456606030464,2.359169802002609
1615025479667352800,6.786352783203125,-5.958354277658462,-2.2942075004875657,2.6537863700613378
1615025479677284600,6.79628466796875,-4.180689647869766,-4.4771366462260485,2.4232785554282366
1615025479687216600,6.806216552734375,-1.115585160908103,-4.7728959545791145,1.5033388623476027
1615025479697148700,6.816148681640625,3.5373058193698523,-3.4334120219141244,0.13184724165573716
1615025479707081000,6.8260810546875,7.979753137269616,-0.7740548659831284,-1.4914393118478357
1615025479717013000,6.836012939453125,10.118525161373615,2.659582781380415,-2.948174097800255
1615025479726945000,6.845945068359375,10.75547048125863,5.488405692613124,-4.334578479333222
1615025479736876800,6.855876708984375,10.252932462775707,7.355728673756122,-5.920527528089284
1615025479746808800,6.865808837890625,8.428843058681487,8.583445591372252,-7.1453072232097385
1615025479756740900,6.875740966796875,-0.8369676876224577,9.178975197285412,-7.608394105792045
1615025479766673000,6.8856728515625,-16.864292383760212,6.425090330398082,-5.501975952804088
1615025479776605000,6.89560498046875,-6.483993185743689,0.15649463004767894,-2.0136296869143844
1615025479786536700,6.90553662109375,1.297430505311489,-2.4499814150452615,-0.4761205516785383
1615025479796468700,6.91546875,5.867518991479277,-4.184877454948425,0.03945069750919938
1615025479806400800,6.92540087890625,8.683044029721618,-4.3213522102743385,0.2787964831143617
1615025479816332800,6.935332763671875,7.394927880722284,-4.309772247117758,0.8574297531537711
1615025479826264800,6.945264892578125,5.712236075308919,-4.402107416465879,1.535201735076308
1615025479836195600,6.955195556640625,5.156753233101964,-3.936394861555099,1.8491950576476752
1615025479846127900,6.9651279296875,5.163319752010703,-3.037856122291088,1.8741389447681605
1615025479856060000,6.975059814453125,5.194281876507401,-1.8218845875263212,1.8742884362414478
1615025479865992000,6.984991943359375,5.20413165487051,-0.5252963782578707,1.7084795960120855
1615025479875924000,6.994924072265625,5.199746571654081,0.48519583853781223,1.5235890386939048
1615025479885856000,7.00485595703125,5.033403916808963,1.0433318256020545,1.439344529081881
1615025479895787800,7.014787841796875,4.5636721893846985,1.0699456917613743,1.4965521248169242
1615025479905719800,7.0247197265625,3.917710034829378,0.7455886499553919,1.6146628098040818
1615025479915651800,7.03465185546875,3.3295249464601278,0.3893219736695289,1.6764223697550593
1615025479925584000,7.044583984375,2.787143577888608,0.16897767952382564,1.6783800796940922
1615025479935516000,7.054515869140625,2.259050262388587,-0.0006131634622812271,1.6065952386826277
1615025479945448000,7.064447998046875,0.6955564988076687,-0.14940847117900846,1.5153461110055446
1615025479955379700,7.074379638671875,-6.1976306512892245,-0.06995674880146979,1.287307901356369
1615025479965311700,7.084311767578125,-9.44910614338517,0.26559564075767994,0.9853646436713636
1615025479975243800,7.094243896484375,-7.272732995161414,-0.09275251797735691,1.0661667577445506
1615025479985175800,7.10417578125,-5.341101500236988,-0.5214888026684522,1.199945551984757
1615025479995107800,7.11410791015625,-3.621712826067209,-0.6473229215145111,1.188130172637105
1615025480005039600,7.12403955078125,-2.0718004285931584,-0.4328513187944889,1.246732291470468
1615025480014971600,7.1339716796875,-0.6861965497881174,0.027283143723011015,1.542924730543792
1615025480024903700,7.143903564453125,0.3980167367786169,0.42123160814940924,2.0113912603378297
1615025480034835700,7.153835693359375,0.8108008345782757,0.4050526267647743,2.3389850921079516
1615025480044767700,7.163767822265625,0.8668804491966963,0.13866145171523092,2.550742467433214
1615025480054699800,7.17369970703125,0.8547907829523086,-0.22054069350063799,2.7698072431623935
1615025480064631800,7.1836318359375,0.9246598534703254,-0.5575713389188051,2.934241434037685
1615025480074563800,7.193563720703125,1.0680173540472984,-0.8639835587114095,2.9762185812845825
1615025480084496000,7.203495849609375,1.202824468421936,-1.076470125094056,2.8776982935607434
1615025480094428000,7.213427978515625,1.2457821511387823,-1.0470838716119528,2.661303906084597
1615025480104360000,7.22335986328125,1.219137305319309,-0.7207692659974098,2.311646711066365
1615025480114292000,7.2332919921875,1.0804396132469176,-0.2897229507982731,1.878038436424732
1615025480124223700,7.2432236328125,0.9217851748168467,0.1793880143791437,1.329043348801881
1615025480134155800,7.25315576171875,0.6247334155004471,0.6415951915174722,0.8184821828611195
1615025480144087800,7.263087890625,0.15916282634362577,1.0336071349233389,0.30064781104698773
1615025480154018800,7.273018798828125,-0.9357809669435023,1.2770002962231635,-0.38939766925424335
1615025480163950800,7.282950927734375,-3.3012288263022898,1.259914136865735,-1.532496713901311
1615025480173882600,7.292882568359375,-5.106694193947315,1.6783984921336172,-2.6185014139294625
1615025480183814700,7.302814697265625,-5.539805624982714,2.515823714265227,-3.186705790543556
1615025480193746700,7.31274658203125,-5.39590977974534,2.9758173070073126,-3.2717344362705942
1615025480203678700,7.3226787109375,-4.407077898354828,2.554866269364953,-2.5048621752679345
1615025480213611000,7.332611083984375,-2.835948525328934,1.7449807960659265,-1.0570695513144135
1615025480223542800,7.342542724609375,-1.5806279998637736,1.2203770762473345,0.44645007442757484
1615025480233474800,7.352474853515625,-0.7240661155857145,1.081029980355501,1.5970570104867219
1615025480243406800,7.36240673828125,-0.34980844005718825,1.0209458062708376,2.4129164436288177
1615025480253339000,7.3723388671875,-0.4283106066249311,1.027267995029688,3.0081174021095034
1615025480263271000,7.38227099609375,-0.7208544600628316,1.178676115593314,3.500698674723506
1615025480273203000,7.392202880859375,-1.4229276472881436,1.455853473073244,3.9629099435150623
1615025480283134700,7.402134765625,-2.6657155850470065,1.582142349949479,4.401689483314752
1615025480293066000,7.41206591796875,-2.7910627971589563,1.216640227806568,4.377500213953852
1615025480302998000,7.421998046875,-2.104312851271778,1.2472422868192194,3.9077947900146244
1615025480312930000,7.431929931640625,-2.222742831341177,1.7637731748193501,3.278395063203573
1615025480322862000,7.441862060546875,-3.0035692372858525,2.0459388421058655,2.4877926747843624
1615025480332794000,7.451794189453125,-3.8402117846071717,2.434832945752144,1.6643594453871249
1615025480342726100,7.46172607421875,-4.341581928354501,3.031960049989819,1.1234548713698982
1615025480352658000,7.471657958984375,-4.132436489093304,3.7747821578413245,1.133436751680076
1615025480362590000,7.48158984375,-3.282100931984186,4.303742903825641,1.6291227123111485
1615025480372522200,7.491522216796875,-2.5371722072422505,4.2426036677300925,2.1956348980545997
1615025480382454300,7.501454345703125,-2.2535819139800966,3.6279373996704813,2.4393112602099776
1615025480392386300,7.51138623046875,-2.168489701497555,2.5673984186798333,2.339241112695634
1615025480402318300,7.521318359375,-1.4762836821615695,1.228253508710861,2.025782773783803
1615025480412250000,7.53125,-0.09924597164988518,0.21067688661217687,1.6434864609673618
1615025480422182100,7.54118212890625,1.2364882530927657,-0.07660042459964751,0.9484892034776509
1615025480432114200,7.5511142578125,2.4020950437545774,0.14917524694502352,0.2525818454056978
1615025480442046200,7.561046142578125,3.5336078416347503,0.7871358813524246,-0.4631074869789183
1615025480451977200,7.570977294921875,5.011424724712968,1.9551766211628914,-1.4861249849572777
1615025480461909000,7.580908935546875,6.667578651812672,3.1252918291598557,-2.4555364188238977
1615025480471841000,7.590841064453125,7.631759783810376,4.012908776915073,-3.2158938911050554
1615025480481773000,7.60077294921875,7.730217235431074,4.336424107199907,-3.622072307029366
1615025480491705000,7.610705078125,6.280400704434514,3.7781852442830797,-3.471743798395991
1615025480501637000,7.62063720703125,3.008027677999437,2.5689421409904956,-2.8479858768641946
1615025480511569200,7.630569091796875,-1.2729475137010215,1.0554168156713246,-1.9267501526236532
1615025480521501200,7.640501220703125,-3.9605964058756826,-0.25979776813387867,-0.9847529415138065
1615025480531433200,7.65043310546875,-3.811135912248492,-0.9339899918735026,-0.10759995849728583
1615025480541365200,7.660365234375,-1.6938602651596069,-1.2206330968350172,0.7859943101018667
1615025480551297300,7.67029736328125,0.49279696119129657,-1.2954291023612021,1.5707707688465713
1615025480561229300,7.680229248046875,2.0222823644474146,-1.1828098543971777,2.0975540246613322
1615025480571161000,7.6901611328125,3.311653481943905,-0.9890905323266982,2.3167850968681276
1615025480581093000,7.700093017578125,4.211983488538861,-0.8454547993302345,2.403019611253589
1615025480591025200,7.710025146484375,4.503777400392294,-0.7108733104050159,2.4073694770261644
1615025480600957200,7.719957275390625,4.442697785529494,-0.6425877096861601,2.3332268208421767
1615025480610889200,7.72988916015625,4.0282033766806125,-0.5770709891587495,2.220478685801476
1615025480620821200,7.7398212890625,3.558642037387192,-0.5575637401342391,2.0264142035551367
1615025480630753000,7.7497529296875,3.3235067090839148,-0.656995005223155,1.7012570974126457
1615025480640685000,7.75968505859375,3.4037036968708034,-0.8054343391090631,1.3354463477119802
1615025480650617000,7.7696171875,3.8338042556524274,-1.0119611203044652,0.8516424019239842
1615025480660549000,7.779549072265625,4.320769734211265,-1.2184154207855462,0.2719076003834605
1615025480670481200,7.789481201171875,4.712569788432121,-1.4437965400546788,-0.45839872476607557
1615025480680413200,7.7994130859375,4.808175942274928,-1.6826035426080226,-1.242619887715578
1615025480690345000,7.809344970703125,4.4825855592817065,-1.9610189174503088,-1.9347730078205465
1615025480700277000,7.819277099609375,3.8256782323420047,-2.2512848890841006,-2.418067981173098
1615025480710209000,7.829208984375,3.042434682253003,-2.570382987448573,-2.689071910715103
1615025480720141000,7.83914111328125,2.3285265341967345,-2.8717852701246738,-2.7000164985775945
1615025480730073000,7.849072998046875,1.9468197117060422,-3.0748826613932847,-2.424200492578745
1615025480740004000,7.859004150390625,1.8165151694476604,-3.1169729136258364,-1.808792758502066
1615025480749936000,7.86893603515625,1.768413401840627,-2.9957869128465653,-0.9721794372752308
1615025480759868200,7.8788681640625,1.653328056024015,-2.7681542152583596,-0.09034224196523427
1615025480769800200,7.88880029296875,1.3622045907780527,-2.3334107991069555,0.7207777415648102
1615025480779732200,7.898732177734375,0.9760819976717233,-1.7041092719733715,1.3005135660186409
1615025480789664000,7.9086640625,0.6103887368708849,-1.1151286493122576,1.6525155705973504
1615025480799596000,7.918595947265625,0.35052053384929893,-0.6086357557237148,1.8405942564323543
1615025480809528000,7.928528076171875,0.09848813901990651,-0.023051789763569832,1.9761890140533447
1615025480819460000,7.938460205078125,-0.31829204267859457,0.7490531111955643,2.077032484027743
1615025480829392100,7.94839208984375,-1.0860948625296354,1.5806892285317182,2.074265649662912
1615025480839324200,7.95832421875,-2.234681544807553,2.531315297907591,1.778435906422138
1615025480849256000,7.968255859375,-3.907433847747743,3.717268711027503,1.018555988524854
1615025480859188000,7.97818798828125,-6.2849991381406785,5.047845699137449,-0.17803776881396768
1615025480869120000,7.9881201171875,-8.852687479677796,6.011286241900921,-1.3675406911090016
1615025480879052300,7.99805224609375,-9.887734876537323,6.2359174195855855,-2.3887770047590133
1615025480888984300,8.007984375,-8.063153889533877,5.555488931804895,-3.324142084378004
1615025480898916400,8.017916259765625,-5.448381725260615,3.726901047247648,-3.43634865988791
1615025480908848000,8.02784814453125,-4.787481821553409,0.4625783485382795,-2.2836311614155766
1615025480918780200,8.0377802734375,-4.7417964674383395,-3.552791850054264,-0.46547962293773887
1615025480928712200,8.047712158203124,-3.7609015165269373,-6.825739753767848,1.228400369835645
1615025480938644200,8.057644287109374,-0.5765948960795998,-8.475552787408231,2.129258638088405
1615025480948576300,8.067576171875,4.688694991847872,-7.581061277708411,1.7752527463413774
1615025480958508300,8.07750830078125,9.120596073552965,-4.285805096074938,0.3470991810984909
1615025480968440000,8.087440185546875,10.590433063793181,-0.3833288707345724,-1.0364204387784004
1615025480978372000,8.0973720703125,10.682172605335712,3.310241569319367,-2.45452519595474
1615025480988304100,8.10730419921875,10.341854608809948,6.767188780599832,-4.291262192437053
1615025480998236200,8.117236083984375,8.830029073145985,9.158416977903247,-5.656918677234649
1615025481008168200,8.127168212890625,2.405795213446766,10.312149206376075,-5.568567024564743
1615025481018100200,8.137100341796875,-13.711214137530327,9.644968907225131,-1.4924324145384131
1615025481028031200,8.14703125,-8.165209657907486,3.3261639455944296,1.0077766742266714
1615025481037963300,8.15696337890625,-2.006582691012323,-0.4426426449686289,1.4474828273519873
1615025481047895300,8.166895263671876,5.371884176513553,-2.643985399276018,0.4626774249985814
1615025481057827300,8.176827392578126,8.453781100583075,-3.885484174007177,0.054629708071053024
1615025481067759000,8.186759033203124,6.873510974246263,-5.182641123074293,0.9521334051989019
1615025481077691100,8.196691162109374,4.940670103532075,-5.851999935308099,1.7559606013722717
1615025481087623200,8.206623046875,3.9156238762050863,-5.493367698934674,2.0920744242064653
1615025481097555200,8.21655517578125,3.8839036268174647,-4.358832338362932,2.023823894800991
1615025481107487200,8.2264873046875,4.120068590429425,-2.7665602240651843,1.8045730949804186
1615025481117419300,8.236419189453125,4.1836885374248025,-1.033405474871397,1.55674385092929
1615025481127351000,8.24635107421875,4.260200114697217,0.4895359135687351,1.3441288358613848
1615025481137283000,8.256282958984375,4.280516926538944,1.5511094983041285,1.283118779103458
1615025481147215000,8.266215087890625,4.078536556601524,2.044191706177592,1.464768016412854
1615025481157147100,8.276147216796875,3.6361359036952257,2.0774159303873776,1.7453382312014698
1615025481167079200,8.2860791015625,3.1429239319622515,1.8460954841971395,1.976645233388245
1615025481177011200,8.29601123046875,2.686211260586977,1.478065889403224,2.239098192206025
1615025481186943000,8.30594287109375,1.1841922486662864,0.8793027083963155,2.6303417815878984
1615025481196875000,8.315875,-4.441000333961844,-0.026046879926323888,2.852073146177828
1615025481206807000,8.32580712890625,-7.297478144839405,-0.19608955833315847,2.529775959511101
1615025481216739000,8.335739013671875,-6.156472711470723,-0.22081658783257005,2.263013028539717
1615025481226671000,8.345671142578125,-4.75132651232779,-0.4100935435414314,1.927928402622789
1615025481236603100,8.35560302734375,-3.6245711381077763,-0.44251697276234625,1.567916256198287
1615025481246535200,8.36553515625,-2.521871762257814,-0.3417290323674679,1.493155614246428
1615025481256467200,8.37546728515625,-1.2352262703329324,-0.13090017006397248,1.70669972685799
1615025481266399200,8.385399169921875,-0.0161099895353429,-0.012452654337882995,2.0137080128476024
1615025481276331300,8.395331298828125,0.780514417386055,-0.18641046036183834,2.2963456815600396
1615025481286263300,8.40526318359375,1.1854086387187242,-0.462514051130414,2.4740377056762575
1615025481296195600,8.415195556640626,1.3587357456237077,-0.6619196021437644,2.5585417430073023
1615025481306126600,8.425126708984376,1.4858780244588852,-0.8022346662849187,2.565569449687004
1615025481316058600,8.43505859375,1.592278544038534,-0.8467658819288015,2.4708500155508517
1615025481325990400,8.444990478515624,1.6484405762434005,-0.7346955000191927,2.252872888927907
1615025481335922400,8.45492236328125,1.7424854721188545,-0.46469256421327587,1.9297927351899444
1615025481345854500,8.4648544921875,1.931965256923437,-0.13637363303899763,1.5398469305336475
1615025481355786500,8.474786376953125,2.0985668549656866,0.22596681020259857,1.1298809588946401
1615025481365718500,8.484718505859375,2.1556547698438164,0.587062806341052,0.7238267538718879
1615025481375650300,8.494650390625,2.020906107658148,0.9880980141580105,0.342471082906425
1615025481385582300,8.504582275390625,1.7149840094700455,1.460991420483589,0.024373978278040883
1615025481395514400,8.514514404296875,1.213980653208494,1.8539181406468153,-0.25733196254223584
1615025481405446700,8.52444677734375,0.5293839398324489,2.125232743573189,-0.5009828979954123
1615025481415378700,8.534378662109376,-0.34129634003862735,2.2720085281610487,-0.7158790097378194
1615025481425310700,8.544310791015626,-3.2645711205124854,2.133322526526451,-1.0080630899526177
1615025481435242500,8.554242431640626,-10.460616597312688,1.4709645329654215,-1.9583866692505776
1615025481445174500,8.564174560546874,-11.798162839913367,1.18170510802567,-2.5422470262885093
1615025481455106600,8.5741064453125,-10.136166032004356,1.3008739237636326,-2.1774654735051095
1615025481465038600,8.58403857421875,-7.02283001357615,1.0354939715832472,-1.3314056940190493
1615025481474970600,8.593970703125,-2.391476619106531,1.0602116487324238,0.08529650288298725
1615025481484902700,8.603902587890625,0.5154328636303543,1.269563424220681,1.5498198968850074
1615025481494834400,8.61383447265625,0.9557344984307885,1.208018529933691,2.426669220779836
1615025481504766500,8.623766357421875,0.6747361213579773,1.117778287038207,2.920172576674819
1615025481514698500,8.633698486328125,0.3710685240983963,1.252320028474927,3.2964880615159866
1615025481524630500,8.643630615234375,0.06501651592031121,1.5843202785104513,3.4776492230474947
1615025481534562600,8.6535625,-0.2593615686737001,1.7945692950993775,3.6194106866046782
1615025481544494600,8.66349462890625,-1.2069229897819458,1.6474726079940796,3.8493653973996635
1615025481554426400,8.67342626953125,-2.87376913741827,1.9257973819434642,3.980357337400317
1615025481564358400,8.6833583984375,-2.979609685027599,2.2920856860280034,3.7051597555607554
1615025481574290400,8.69329052734375,-2.5404934606194494,2.3389830462813377,3.0585473204031586
1615025481584222500,8.703222412109374,-3.622548692369461,2.6565263164192436,2.3990572834938764
1615025481594153500,8.713153564453124,-5.255729740160703,3.5818127773553132,2.016867938183248
1615025481604085500,8.72308544921875,-5.341823969292641,4.632624729579687,2.051635300181806
1615025481614017500,8.733017578125,-4.220984541118145,4.874406364029646,2.3101748849481343
1615025481623949600,8.742949462890625,-3.0202152516603467,4.332423054865003,2.4280507382661103
1615025481633881600,8.752881591796875,-2.1047417442083356,3.3399674300193785,2.500361356717348
1615025481643813600,8.762813720703125,-1.3194587972462177,2.2018366753041745,2.5454160117134452
1615025481653745400,8.772745361328125,-0.1288543434500694,1.0849147128343581,2.21206463932991
1615025481663677400,8.782677490234375,1.5125439130663871,0.3642144204199314,1.4859829461380838
1615025481673609500,8.792609375,2.758396206831932,0.18454349744617937,0.580569791059941
1615025481683541500,8.80254150390625,3.5491058550179004,0.5011041862875223,-0.2912001837439835
1615025481693473500,8.8124736328125,4.6759717038750646,1.256822016069293,-1.4621585645668207
1615025481703405600,8.822405517578124,6.304243352314829,2.3018653217643497,-2.7220442059904335
1615025481713337300,8.83233740234375,7.7323600926786655,3.1946587953746315,-3.7092195523455738
1615025481723269400,8.842269287109374,8.017064338532089,3.608396248376369,-4.406190886387229
1615025481733201400,8.852201416015625,7.037502097529172,3.215790430730581,-4.385418439732492
1615025481743133400,8.862133544921875,4.993252523684501,2.056784645769,-3.751877959854901
1615025481753065500,8.8720654296875,0.45154432882666584,0.5655442174941301,-2.6490309922277926
1615025481762997500,8.88199755859375,-5.260130020946264,-0.6061842709183692,-0.998950393692404
1615025481772929500,8.891929443359375,-4.97367279394567,-1.170949320733547,0.29432474550530313
1615025481782861600,8.901861572265625,-2.1802944133207203,-1.3263280984938144,1.0201375586278736
1615025481792793600,8.911793701171876,-0.0021469489008188246,-1.44715111117959,1.4635035494349895
1615025481802725600,8.9217255859375,1.6969748900488018,-1.4483423667907713,1.8527572801738976
1615025481812657700,8.93165771484375,2.7388591471910475,-1.4453309100151062,2.3492155403517185
1615025481822589700,8.941589599609374,3.1021678509429096,-1.334741706573963,3.024486937630176
1615025481832521500,8.951521484375,3.927463659341633,-0.8776683851927518,3.333580359330773
1615025481842453500,8.96145361328125,4.508229703626037,-0.37553485585749147,3.3320138406664133
1615025481852385500,8.971385498046875,4.54677190798819,0.06837795517742633,3.1943367238134144
1615025481862316500,8.981316650390625,4.115327533382177,0.4142126692980528,2.935144520357251
1615025481872248300,8.991248291015625,3.4106960399761794,0.5483627810686826,2.5972397224530575
1615025481882180400,9.001180419921875,2.7695596981421113,0.4760504090517759,2.104252791647613
1615025481892112400,9.0111123046875,2.5850661773175,0.23097265566587447,1.4965508096426725
1615025481902044400,9.02104443359375,2.7837887145027516,-0.08907295268177985,0.8815990026399493
1615025481911976400,9.0309765625,3.2050279214367268,-0.4858797291487455,0.32531419640034437
1615025481921908700,9.04090869140625,3.6214436537370083,-0.9249187966674566,-0.17779460770785807
1615025481931840500,9.050840576171876,3.8923903001338243,-1.3735586362242698,-0.6284113002955913
1615025481941772500,9.0607724609375,3.9395375434949993,-1.8813380624920129,-0.9479118419811129
1615025481951704600,9.07070458984375,3.783049050927162,-2.428239538836479,-1.1233411818623542
1615025481961636600,9.08063671875,3.528896887464821,-2.9537153653144834,-1.1507596424028277
1615025481971568600,9.090568603515624,3.222232154215872,-3.377719945308566,-1.0319441701471805
1615025481981500700,9.100500732421875,2.906414684957266,-3.5039795960903164,-0.8125970703452825
1615025481991432400,9.110432373046875,2.548444419623911,-3.2761317944467065,-0.5283341385185718
1615025482001364500,9.120364501953125,2.08778125705719,-2.7750433902502056,-0.24101737207919358
1615025482011296500,9.130296630859375,1.531335707297921,-2.050572347125411,0.018809622149169442
1615025482021228500,9.140228515625,0.9667483521372079,-1.1818600063264368,0.17573679839521644
1615025482031160600,9.15016064453125,0.5615706376880407,-0.26023615955114365,0.13568448173105715
1615025482041092600,9.160092529296875,0.22585224391221997,0.5695183818221092,-0.053795303073525425
1615025482051024400,9.1700244140625,-0.025653496694564817,1.2404630019426346,-0.3970534447044134
1615025482060956400,9.179956298828126,-0.5168038597226142,1.686422224113345,-0.8620388543844223
1615025482070888400,9.189888427734376,-1.3129448853075503,1.8987702588081359,-1.433087514513731
1615025482080820500,9.199820556640624,-2.214903077626228,1.8007295712947844,-2.0164710478201506
1615025482090752500,9.20975244140625,-3.689612057816982,1.481396495130658,-2.5938158854842186
1615025482100684300,9.219684326171874,-6.265640942198038,1.4107985258162021,-3.1263913148343563
1615025482110616300,9.2296162109375,-8.653784617489576,1.977305450862646,-3.6171389422804117
1615025482120547600,9.239547607421875,-7.3790113496661185,3.057127224472165,-3.8059088252499698
1615025482130479600,9.249479736328125,-3.7620164920315142,3.962462784269452,-3.5482588827997446
1615025482140411600,9.25941162109375,-1.6506500689864159,3.5856630230426787,-2.79558758110702
1615025482150343400,9.269343505859375,-1.924840811870992,1.267114862024784,-1.4904969164311885
1615025482160275500,9.279275390625,-3.2048142786860465,-2.2402397634565827,-0.0025175357788801193
1615025482170207500,9.28920751953125,-3.7716453211203214,-5.688959829139709,1.6483751097917556
1615025482180139500,9.299139404296875,-2.3928593056365846,-8.108557211837171,2.8614082530170677
1615025482190071600,9.309071533203126,0.24031565355062484,-9.13021438124776,3.2748101904541254
1615025482200003600,9.319003662109376,3.5839661559969183,-7.659810989296436,2.536754274091124
1615025482209935400,9.328935302734376,7.027841119736433,-3.927418943417072,0.9922332142665982
1615025482219867400,9.338867431640624,9.221873258769511,0.6816255886107683,-0.34448256885930895
1615025482229799400,9.34879931640625,10.044413630980253,5.001670223417878,-1.5396683590963482
1615025482239731500,9.3587314453125,10.268881727057694,8.832739501148462,-3.1837416800409555
1615025482249663500,9.36866357421875,9.301446561700105,11.847220593070983,-4.841959846194088
1615025482259595500,9.378595458984375,0.7771851268328726,14.716203665256499,-4.638313881132007
1615025482269527600,9.388527587890625,-9.756011699652671,13.304811265200376,-1.1982523382008075
1615025482279459600,9.39845947265625,-7.117214516669511,5.798455976647138,1.4990233372360466
1615025482289391600,9.4083916015625,-7.982596836262941,0.6871779620409011,3.098935444892943
1615025482299324200,9.41832421875,-0.11047989784777164,-2.5491186656236646,1.9847718412205575
1615025482309256200,9.428256103515626,5.823410385161638,-4.107722319075465,0.6905211349889636
1615025482319188200,9.438188232421876,6.651757397824525,-5.319149780669808,0.7278162618994712
1615025482329120300,9.448120361328124,5.676659150493145,-6.634215311393142,1.2577375234790145
1615025482339052000,9.458052001953124,4.951247611647844,-7.116645192348956,1.514509952442348
1615025482348984000,9.467984130859374,4.533612566685676,-6.54160307866931,1.5445326041318475
1615025482358916000,9.477916015625,4.423759276303649,-5.196830391946435,1.3777122487723827
1615025482368848100,9.48784814453125,4.463012843805552,-3.177878925487399,1.1217869381576775
1615025482378780200,9.4977802734375,4.368541246950626,-1.2506716767460107,0.899079275881499
1615025482388711000,9.5077109375,4.160216476422548,0.187819158115983,0.7288694242142141
1615025482398643000,9.517642822265625,3.97891532189846,1.2167343358308076,0.6391412224940956
1615025482408575000,9.527574951171875,3.710958797228336,1.8030723350286482,0.715613052278012
1615025482418507000,9.537507080078125,3.4158933163583276,1.979332572776079,0.908758666113764
1615025482428439000,9.54743896484375,2.9964310559689995,1.8756266991078852,1.2428687479101121
1615025482438370800,9.557370849609375,2.3574844792641696,1.5729846455037593,1.6263972328700125
1615025482448303000,9.56730322265625,0.12423311339020729,1.200202303224802,2.352998127630353
1615025482458235100,9.577235107421876,-7.225272740328312,0.7161059503614902,3.839911632616818
1615025482468167200,9.587167236328124,-6.683747696325183,0.14542144736945628,3.7300577577129004
1615025482478099200,9.59709912109375,-4.2383834196865555,-0.29660277343988417,2.9390017803072928
1615025482488031200,9.60703125,-3.029760494118929,-0.4139192393094301,2.3156480556622148
1615025482497963000,9.616962890625,-2.2373229992270467,-0.5084095408648253,1.7692495604038236
1615025482507895000,9.62689501953125,-1.6398001736700534,-0.4368623080015182,1.3626973427310585
1615025482517827000,9.6368271484375,-0.9859083951592444,-0.19370646258890628,1.1844538222119212
1615025482527759000,9.646759033203125,-0.10203647915124893,0.005899579432606696,1.2556243307173252
1615025482537691100,9.656691162109375,0.5194809699773788,-0.13749357697963713,1.3840969813734292
1615025482547623200,9.666623046875,0.7402490424931049,-0.43085576106309886,1.512428177732229
1615025482557555000,9.676554931640625,0.9525649284839629,-0.6221124924123287,1.590850703192502
1615025482567487000,9.686487060546876,1.116107138955593,-0.8355325402528047,1.6697072361558676
1615025482577419000,9.6964189453125,1.1905319730818271,-0.982794647052884,1.7075851313903927
1615025482587351000,9.70635107421875,1.2896540260910987,-0.9925789589643478,1.677697650387883
1615025482597283000,9.716282958984374,1.3420587515890599,-0.7453466578930616,1.5691406834267079
1615025482607215000,9.726215087890624,1.4238263496935366,-0.2707476166933775,1.3354574536278843
1615025482617147000,9.73614697265625,1.4828279892385006,0.23678514133691786,1.0355693749070167
1615025482627079000,9.746078857421875,1.4757961909055708,0.6496668542921543,0.7189718611866235
1615025482637010200,9.75601025390625,1.3708674974441528,1.010500984624028,0.42624110687449573
1615025482646942200,9.765942138671875,1.126075575262308,1.2750550073742866,0.15442542255818842
1615025482656874000,9.7758740234375,0.7248667644441127,1.4854776269644498,-0.05997779110074043
1615025482666806000,9.785805908203125,0.17915961245074868,1.708619442874193,-0.22683628651350735
1615025482676738000,9.795738037109375,-0.4755142563484609,1.8949778807878492,-0.3826975870937109
1615025482686670000,9.805670166015625,-1.443341197502613,2.036142255234718,-0.4943886142969131
1615025482696602000,9.81560205078125,-4.785487725126743,1.9734698182225225,-0.6900169848591089
1615025482706534100,9.8255341796875,-8.502330319696664,1.669493301144242,-1.1276432629704474
1615025482716466000,9.8354658203125,-8.957732492995262,1.2689292179703713,-1.30002110632658
1615025482726398000,9.84539794921875,-8.837118154624104,1.057920907446742,-0.9593956512868403
1615025482736330000,9.855330078125,-7.121260577189922,0.8816016329884528,-0.18832126241922378
1615025482746262000,9.865261962890624,-3.7982466200590133,0.825181242108345,1.0577402901828288
1615025482756194000,9.875194091796875,-1.0369809952706097,1.0491688611924648,2.143732715251297
1615025482766126000,9.8851259765625,-0.17035773570537566,1.2207242822498083,2.537818688452244
1615025482776057900,9.895057861328125,-0.39738194600641724,1.1364145984470844,2.820450511945784
1615025482785990000,9.904989990234375,-0.7492223302826285,1.0918407127052545,3.185181649716198
1615025482795922000,9.914921875,-0.9499019928850233,1.301809743309021,3.311172712689638
1615025482805854200,9.924854248046875,-1.1308793222822249,1.4271750755995511,3.3002091278657315
1615025482815786200,9.9347861328125,-1.596933676367998,1.2900304581880568,3.3158380741521714
1615025482825718300,9.94471826171875,-2.512366267287731,1.481357332164049,3.172684571714699
1615025482835650000,9.954650146484376,-2.5562100851893423,2.2804776658207175,2.7652263451129198
1615025482845582000,9.96458203125,-1.7985973815716803,2.8126474369794128,2.2430333396978677
1615025482855514000,9.97451416015625,-1.7778408631384373,3.3075708888053894,1.7689742505937813
1615025482865446100,9.984446044921874,-3.4454172247454524,4.3209179105103015,1.419769475518167
1615025482875378200,9.994378173828125,-4.724187745511531,5.532448832479119,1.3954254539869726
1615025482885309000,10.004308837890624,-4.178615179683268,5.914677633017301,1.6131082738384603
1615025482895241000,10.014240966796875,-3.013446488177776,5.137449397695065,1.6435004894927143
1615025482905173000,10.024173095703125,-2.0693336000882088,3.506893437710404,1.3311580028682946
1615025482915105000,10.03410498046875,-1.1562731451272963,1.9309844291925429,1.128212879551947
1615025482925037000,10.044037109375,-0.025480332084745167,0.6122177058637142,0.9045327189818024
1615025482934968800,10.05396875,1.334428402841091,-0.3148217362195253,0.3515843636885285
1615025482944900900,10.06390087890625,2.4517490092396734,-0.6868973915338515,-0.45469095628932116
1615025482954833200,10.073833251953126,3.411690603971481,-0.6348083078563213,-1.2780956902444363
1615025482964765200,10.08376513671875,4.608217433553934,-0.01152092644572258,-2.3405159549370405
1615025482974697200,10.093697265625,6.027157180249691,1.1330606118440627,-3.440853862352669
1615025482984629200,10.103629150390624,7.113615030872821,2.120837723484635,-4.357802995315194
1615025482994561000,10.11356103515625,7.147275308412313,2.4858020854890346,-4.852500821691751
1615025483004493000,10.1234931640625,5.966240646994113,2.322318327206373,-4.701937919780612
1615025483014425000,10.133425048828125,2.912456887730956,1.7343652940273284,-4.0972880188226695
1615025483024357000,10.143357177734375,-1.8340296372197566,0.9583768296331167,-2.9397938074678183
1615025483034289200,10.1532890625,-4.238224429732561,0.22883915076851843,-1.3334580965042113
1615025483044221200,10.16322119140625,-2.4485113424926994,-0.29265549711883065,-0.2108767930984497
1615025483054153000,10.173153076171875,-0.2875051286183297,-0.6654664809703826,0.47459714150354265
1615025483064085000,10.1830849609375,1.024013377147913,-0.8379775953173637,1.11883568713665
1615025483074017000,10.19301708984375,1.9855247054144738,-0.804854493394494,1.7231436427891254
1615025483083949000,10.202948974609376,2.1646011696264145,-0.6523188301056623,2.523736971607804
1615025483093881000,10.212881103515626,3.0380151122450827,-0.1595849972784519,3.1841867934599515
1615025483103813000,10.222813232421874,4.167947070674598,0.3851981717377901,3.406895186388492
1615025483113745000,10.232744873046874,4.303672761198878,0.715688601732254,3.3045942110821604
1615025483123676200,10.24267626953125,3.790346514458954,0.7116472173869609,2.9721155298799276
1615025483133608200,10.252608154296874,2.8678257188439367,0.37530046257972716,2.354793486614525
1615025483143540200,10.262540283203125,2.1553671850740908,-0.35876550736427304,1.6117986525446175
1615025483153472000,10.272471923828125,2.016986888387799,-1.1058511178791521,0.9688228203237056
1615025483163404000,10.282404052734375,2.3350550591826438,-1.7211726349771022,0.42750615837424993
1615025483173336000,10.292336181640625,2.950603663034737,-2.195125194966793,-0.046994390887022015
1615025483183268000,10.30226806640625,3.652939154458046,-2.572778942674398,-0.5129153278514742
1615025483193200000,10.3122001953125,4.155541470348835,-2.895743653339147,-0.9296496245816349
1615025483203132200,10.322132080078125,4.3808173756778235,-3.1786990096986294,-1.3133251167967914
1615025483213064000,10.33206396484375,4.335417560505867,-3.3726778594881295,-1.6442437090754507
1615025483222996000,10.341995849609376,4.132705953684449,-3.4728245793700214,-1.8989833170369266
1615025483232928000,10.351927978515626,3.8274551788866518,-3.5123932041704653,-2.02787711571455
1615025483242860000,10.361860107421874,3.4299522368490694,-3.4880227330237625,-1.9788409898668526
1615025483252792000,10.3717919921875,3.04628258985281,-3.332443464255333,-1.7717375778272746
1615025483262724000,10.38172412109375,2.6906711626052853,-2.9769816746115683,-1.4139859236806631
1615025483272656000,10.39165576171875,2.2734248246997595,-2.445716743338108,-0.8644108442127704
1615025483282588000,10.401587890625,1.7119190689414738,-1.7074176658689975,-0.2880050409644842
1615025483292519700,10.411519775390625,1.1163058763980864,-0.8922387623369693,0.20730799470096825
1615025483302451700,10.42145166015625,0.5430003772526979,-0.14129296926259993,0.5762909446969628
1615025483312383700,10.4313837890625,-0.042595571406185626,0.4378571642577648,0.7866773239299655
1615025483322315500,10.4413154296875,-1.0173965893566608,0.7990601279020308,0.8945654517188668
1615025483332247600,10.45124755859375,-2.5489175900936125,1.051406410986185,1.0401640092208981
1615025483342179600,10.4611796875,-4.363037681098282,1.3869441874980926,1.2142357970133424
1615025483352111600,10.471111572265626,-6.168939978855848,2.0124393080860377,1.2770296684481204
1615025483362042600,10.481042724609376,-7.975146520256995,3.1034248652666805,0.9858017199143767
1615025483371974400,10.490974365234376,-9.315393253988027,4.725670093023777,0.29881285070478913
1615025483381906400,10.500906494140626,-7.966223209089041,6.363888550460338,-0.5702224384382367
1615025483391838500,10.51083837890625,-4.914993225961923,7.078261977940797,-1.6883547996111212
1615025483401770500,10.5207705078125,-3.0115698806509372,6.615856063359975,-3.0389930173665283
1615025483411702500,10.53070263671875,-2.447023734283447,4.004156146138906,-3.6745176567986606
1615025483421634600,10.540634521484375,-2.7939184788510203,-0.2823404393315315,-3.075436203622818
1615025483431566600,10.550566650390625,-3.1582208698153496,-4.540886357080936,-1.6183388679683208
1615025483441498600,10.56049853515625,-2.490323654566705,-7.86307029312849,-0.00043050037175416944
1615025483451430700,10.5704306640625,-0.3934074894174933,-9.98636008594036,1.0475763313040136
1615025483461362700,10.58036279296875,3.201055218413472,-10.06670495776534,1.181119709353149
1615025483471294700,10.590294677734375,7.087690316021442,-7.541574485972523,0.30688349056616426
1615025483481226500,10.6002265625,9.50780032441616,-3.757458098074794,-0.7204189912550151
1615025483491158500,10.610158447265626,10.343300715965032,-0.14009762199819087,-1.6983013163469731
1615025483501090600,10.620090576171876,10.8211368393898,3.6265778017550705,-3.2361557578891516
1615025483511022600,10.630022705078124,10.658743798953294,7.325560914507508,-4.927228438156843
1615025483520954600,10.63995458984375,9.03369578873515,10.142831919634341,-6.345864817991853
1615025483530886700,10.64988671875,-4.2819104267239565,14.155682244360445,-6.0242182041883465
1615025483540818400,10.659818359375,-17.63831276295185,13.896097242194413,-2.740611251555383
1615025483550750500,10.66975048828125,-9.98458664652705,6.162755737262964,-0.2549038586124778
1615025483560682500,10.6796826171875,-10.404406634312867,0.9139975896805524,2.114185425988585
1615025483570614500,10.689614501953125,2.1833308584071696,-3.402244145712256,2.0061333398096264
1615025483580546600,10.699546630859375,10.163633884644508,-5.319192450767755,0.8984063450559974
1615025483590477600,10.7094775390625,10.080552281332015,-5.809819082182646,0.6032154842406511
1615025483600409600,10.71940966796875,7.681465187221765,-6.383380601915717,1.1173352194458246
1615025483610341600,10.729341552734375,6.199709211128949,-6.289498787647485,1.453555425263941
1615025483620273700,10.739273681640626,5.599664758139848,-5.43584080811739,1.3496680575489997
1615025483630205700,10.749205810546876,5.254302337706089,-4.2360733891785145,1.2590420302063225
1615025483640137700,10.7591376953125,5.224022934776544,-2.4908640450537205,1.0232026452869176
1615025483650069500,10.769069580078124,5.205526324099302,-0.860797329890728,0.7140048864290118
1615025483660001500,10.77900146484375,5.023627788203955,0.40691958968043324,0.49870238584280013
1615025483669933600,10.78893359375,4.614730760970711,1.308758539533615,0.4527753319263458
1615025483679865600,10.798865478515625,4.162485590398312,1.7785066335707902,0.5404859102137386
1615025483689797600,10.808797607421875,3.7990129282563925,1.819222090318799,0.7083722873695194
1615025483699729400,10.8187294921875,3.3742952315568924,1.6708838787198066,0.9330988882526755
1615025483709661400,10.828661376953125,2.8650363803863526,1.3865502197444437,1.125650627848506
1615025483719593500,10.838593505859375,2.333739884930849,0.9681617260664701,1.3805347588472068
1615025483729525500,10.848525390625,0.8877005343854427,0.6729758336871862,1.8062969961635766
1615025483739457500,10.85845751953125,-7.138555410861969,0.6560685380280018,2.7047745067596436
1615025483749389600,10.8683896484375,-9.320728769797086,0.3426841411352157,2.407292612397671
1615025483759321300,10.8783212890625,-6.674540307518839,-0.2914484594166279,2.2938445123940703
1615025483769253400,10.88825341796875,-4.989695123463869,-0.44602878027558324,2.4522207184046505
1615025483779185400,10.898185302734374,-3.5196997277915476,-0.32187048568725585,2.311622453407943
1615025483789117700,10.90811767578125,-2.2028993360996245,-0.03288169438242912,2.1431562305375933
1615025483799049700,10.9180498046875,-1.0581202294111252,0.13641396504938602,2.051661311405897
1615025483808981800,10.927981689453125,-0.0739957950592041,0.3155938896358013,1.991281953766942
1615025483818912500,10.93791259765625,0.4735071543097496,0.25605799708366395,1.9256075584597885
1615025483828844500,10.947844482421875,0.6485866578400135,0.07091185756921768,1.9009324052780865
1615025483838776600,10.957776611328125,0.7442448341310024,-0.1971685857415199,1.9812191171750426
1615025483848708600,10.96770849609375,0.7782359510600566,-0.4739169041544199,2.1028988928206265
1615025483858640600,10.977640625,0.7417640501659363,-0.6679273181259632,2.189328199125826
1615025483868572400,10.987572509765625,0.6552361788570881,-0.7861433631837368,2.1806778596803547
1615025483878504400,10.99750439453125,0.5262158311903476,-0.8146808908820152,2.08718446020782
1615025483888436500,11.0074365234375,0.288445112882182,-0.7878378921419381,1.8839763020411133
1615025483898368500,11.017368408203126,-0.0671241557240486,-0.678487290585041,1.5143153066530823
1615025483908300500,11.027300537109374,-0.4347953655343503,-0.43469606987833975,0.9837763515666127
1615025483918232300,11.037232421875,-0.8239595913589001,-0.12544599631130696,0.4007955538421869
1615025483928164600,11.04716455078125,-1.275225687766075,0.1570142700076103,-0.17188421462029219
1615025483938096600,11.0570966796875,-1.6796517070651054,0.3971984061330557,-0.6604184038005769
1615025483948028700,11.067028564453125,-1.776990968310833,0.7042138525158167,-0.9790113291218876
1615025483957960700,11.076960693359375,-1.6523897522605955,1.097335802990198,-1.1306465364396572
1615025483967892700,11.086892822265625,-1.613562155085802,1.3525368909835815,-1.2491431520044802
1615025483977824500,11.096824462890625,-1.7410392188332975,1.4692799408793449,-1.3401622703179716
1615025483987756500,11.106756591796875,-1.9489245750308035,1.5383230819672344,-1.3168576748371124
1615025483997688600,11.1166884765625,-2.1935820571780202,1.5758149004936217,-1.113542841425538
1615025484007620600,11.12662060546875,-2.3189574724711477,1.5900474239856004,-0.6514570987097918
1615025484017552600,11.136552734375,-2.136855084566772,1.4399977322936057,0.17099486456513405
1615025484027484700,11.146484619140624,-1.7591468301929531,1.144153083744645,1.0424806156001984
1615025484037416400,11.15641650390625,-1.453575152877718,0.9169874191462993,1.7020653450556098
1615025484047347500,11.166347412109374,-1.3608688121296464,0.8395148878872394,2.138848596471548
1615025484057279500,11.176279541015624,-1.5303298912562429,0.8073860576987266,2.3964615679122505
1615025484067211500,11.18621142578125,-1.9295884447894989,0.8000199128448963,2.4370640658050773
1615025484077143600,11.1961435546875,-2.5923311998844145,0.894173529791832,2.3072793096370994
1615025484087075600,11.20607568359375,-3.2789889374434944,1.0293161597311495,2.076161838673055
1615025484097007600,11.216007568359375,-3.6533158788159485,0.910844678607583,1.6939429750069974
1615025484106939600,11.225939697265625,-3.747314012940228,0.6488339105993509,1.0672938620783388
1615025484116871700,11.23587158203125,-3.6441362547993656,0.7179577157080173,0.48874987775757905
1615025484126803700,11.2458037109375,-3.220122906976938,1.4937158784776925,0.15924290584251283
1615025484136735700,11.25573583984375,-2.547092712754011,2.3902198970437047,0.27902035499811173
1615025484146667500,11.26566748046875,-2.0753496455073357,3.0004502284824848,0.7932865129366516
1615025484156599600,11.275599609375,-1.980011787211895,3.2487837687939405,1.3244938688039778
1615025484166531600,11.285531494140624,-1.9065211651958525,3.334757586416602,1.8482247513107954
1615025484176463600,11.295463623046874,-1.7449860567629336,3.5156232721328733,2.5007638000383974
1615025484186395600,11.305395751953125,-1.6842226682424544,3.6967864794909953,3.1299954768061635
1615025484196327400,11.315327392578125,-1.8746457252465187,3.71768430609107,3.3723528653174637
1615025484206259500,11.325259521484375,-2.479907766753435,3.203125010424852,2.8760362055674196
1615025484216191500,11.33519140625,-3.1162802551865574,1.956609284314513,1.6814559800080955
1615025484226123500,11.34512353515625,-2.539686820411682,0.757623371142149,0.587256867608428
1615025484236055600,11.3550556640625,-0.8318307631254196,0.12755027511417866,0.05211436424925923
1615025484245987600,11.364987548828125,1.1241028138846159,-0.08227788571417331,-0.30913097723200916
1615025484255918600,11.374918701171875,2.812788306754827,0.2745633755892515,-0.9300818785190582
1615025484265850600,11.3848505859375,4.321427029076219,1.347034201914072,-1.8749264418840408
1615025484275782700,11.39478271484375,5.854622100505233,2.784806074851751,-2.893707763597369
1615025484285714700,11.404714599609376,6.956019746106863,4.00317999458313,-3.789533736771345
1615025484295646200,11.414646240234376,7.530043622654676,4.54004113842845,-4.353810126286745
1615025484305578200,11.424578125,7.272026892718673,4.088948060500622,-4.361272424991428
1615025484315510300,11.43451025390625,4.777265840226412,2.717804084202647,-3.903147840991616
1615025484325442300,11.4444423828125,0.3607622341394424,0.9514262798428534,-2.989660246659815
1615025484335374300,11.454374267578125,-2.9870448034644124,-0.583002717295289,-1.95766873023957
1615025484345306000,11.46430615234375,-4.024230965918302,-1.3379583305329084,-0.9194435801267623
1615025484355238100,11.474238037109375,-3.0640494249507784,-1.5404285298138856,0.12137056356593966
1615025484365170200,11.484170166015625,-1.064114793650806,-1.3765315145552157,0.9400007765956222
1615025484375102200,11.494102294921875,0.8270753852918744,-1.199338379871845,1.513485139439255
1615025484385034200,11.5040341796875,2.0844211329743265,-0.8666150762587785,1.940507898210734
1615025484394966300,11.51396630859375,3.3217487595006823,-0.5508744716286659,2.1340293596215543
1615025484404898000,11.52389794921875,4.023968223328888,-0.36508886516690253,2.0384313890852033
1615025484414830000,11.533830078125,4.201300181961059,-0.3476139987528324,1.782571106530726
1615025484424762400,11.543762451171874,3.9237259341180324,-0.47914662150144577,1.4090017055273054
1615025484434694400,11.5536943359375,3.4513936688065527,-0.7253034022957087,1.0727265546515583
1615025484444626400,11.56362646484375,3.1638357870876788,-1.0796177754700182,0.8293070898666978
1615025484454558500,11.573558349609375,3.251876766373217,-1.3939678025245665,0.5796734267421066
1615025484464489200,11.5834892578125,3.54176689043194,-1.6238824735701083,0.246114549087733
1615025484474421200,11.593421142578125,3.8310643092945216,-1.8042039694070815,-0.22214915161058305
1615025484484353300,11.603353271484375,3.9871714013293382,-2.0361825872451065,-0.7799937545128166
1615025484494285300,11.613285400390625,3.948975526186824,-2.3908067570209504,-1.2908160556077957
1615025484504217300,11.62321728515625,3.702454588255286,-2.777443437129259,-1.7004449042469263
1615025484514149000,11.633149169921875,3.3055911131650206,-3.1491642876565455,-1.9962834153160451
1615025484524081200,11.6430810546875,2.906550294035673,-3.4552900917232034,-2.1795719442650676
1615025484534013200,11.65301318359375,2.667505391073227,-3.668941025710106,-2.218300318849087
1615025484543945200,11.6629453125,2.531048463664949,-3.710723819428682,-2.1099447196789085
1615025484553877200,11.672877197265626,2.5244097563028336,-3.5793554473310705,-1.7479162649959326
1615025484563809300,11.682809326171874,2.498347094285488,-3.309790318420529,-1.2037883450180291
1615025484573741300,11.6927412109375,2.098762669798732,-2.929165445947647,-0.5277881950736045
1615025484583673300,11.70267333984375,1.577712843069434,-2.441163317817449,0.15890812093019485
1615025484593605400,11.71260546875,1.160210484576225,-1.8954069198548793,0.7156593756377697
1615025484603537400,11.722537353515625,0.6966857950985431,-1.3482266265690326,1.0749705341860651
1615025484613469400,11.732469482421875,-0.025084464634954926,-0.7726911764144897,1.3340613230943679
1615025484623401200,11.742401123046875,-1.063029044240713,-0.16673720712065696,1.6381851396888494
1615025484633333200,11.752333251953125,-2.1431518466234207,0.4946633395850658,2.0321435409873723
1615025484643265300,11.762265380859375,-3.2380130761936305,1.2049153032213449,2.4909867946505546
1615025484653197300,11.772197265625,-4.250250675351918,2.067786516776681,2.8853292268306014
1615025484663129300,11.78212939453125,-5.367578003752231,3.3240924000173804,3.021134120070934
1615025484673061400,11.792061279296876,-6.631188072526455,5.137023281237482,2.790488796663284
1615025484682992000,11.8019921875,-8.128270212566852,6.881857946830988,2.217392848615348
1615025484692924200,11.811924072265626,-7.853992083659768,7.798725538989901,0.9045914634317159
1615025484702856200,11.821856201171874,-5.6240404899835585,7.375697110551595,-0.8389476093932986
1615025484712788200,11.831788330078124,-4.669587555795908,5.026279179495573,-1.9925790078401564
1615025484722720500,11.841720458984375,-5.160386036646366,1.3931792824953793,-2.1567488486908375
1615025484732652300,11.85165234375,-5.762945102804899,-2.723357626676559,-1.5989437010161578
1615025484742584300,11.861584228515625,-4.899466863267123,-6.061360478624701,-0.9834783915333449
1615025484752516400,11.871516357421875,-2.154695861683786,-7.536697235324978,-0.7700858162216841
1615025484762448400,11.881448486328125,3.0722122731402512,-6.497390427455306,-1.2959231694884596
1615025484772380400,11.89138037109375,8.69794173912406,-3.625153321909904,-2.3369721448503435
1615025484782312200,11.901312255859375,11.566138044846058,-0.16445114201009273,-3.233563987830281
1615025484792244200,11.911244140625,11.838660854518412,2.861432218414545,-4.059754699242115
1615025484802176300,11.92117626953125,11.258919184845686,5.13605823559761,-5.072769712513685
1615025484812108300,11.9311083984375,9.701100544291734,6.293426774746179,-5.868003560125827
1615025484822040300,11.941040283203124,5.80261192728281,6.268749429607391,-5.927900687205791
1615025484831972400,11.950972412109374,-9.534036004912853,6.651112085658311,-3.9718741712152954
1615025484841904000,11.960904052734374,-16.413576906973123,3.305529738366604,-1.1500481331326067
1615025484851836200,11.970836181640625,-12.112611066645384,-0.11421031654775142,0.4138289306774735
1615025484861768200,11.980768310546875,-2.850357574431598,-2.3735481637060643,0.5691076090641319
1615025484871700200,11.9907001953125,6.550360385620594,-3.7580104712605475,-0.22700696690529584
1615025484881632300,12.00063232421875,8.874676024124026,-4.176452156430482,-0.24170915373563764
1615025484891564300,12.010564208984375,8.111313232547044,-4.8663691880464555,0.2703387436315417
1615025484901495300,12.020495361328125,7.179388941031694,-4.530874081632494,0.48989320257380603
1615025484911427300,12.03042724609375,6.700103787842393,-3.769527306053042,0.4750790798015892
1615025484921359400,12.040359375,6.114872288581728,-2.707403101697564,0.48491745998784896
1615025484931291400,12.05029150390625,5.731302594828605,-1.3080723108351229,0.42356078174933787
1615025484941223400,12.060223388671876,5.45150482571721,-0.04166588934063911,0.32767712613940236
1615025484951155200,12.0701552734375,5.062644624340534,0.9977812037825584,0.38999373545125127
1615025484961087200,12.080087158203124,4.555694634634256,1.5228566327661275,0.6035537762843072
1615025484971019300,12.090019287109374,4.079650070801377,1.595111721637845,0.8263819962002337
1615025484980951300,12.099951416015625,3.6696442055433987,1.4050573518157004,1.0565936043657362
1615025484990883300,12.10988330078125,3.205984491509199,0.9213263251334428,1.2704986592441796
1615025485000815000,12.119815185546875,2.7166999223530293,0.4724515077769756,1.4675919877924024
1615025485010747100,12.1297470703125,2.2467133433848616,0.22708266249001025,1.6454748583056031
1615025485020679200,12.13967919921875,1.1323843200176953,0.14784195251464843,2.255777232067287
1615025485030611200,12.149611083984375,-3.806094995471835,0.09467910212576389,2.9039211145758625
1615025485040543200,12.159543212890625,-7.8182742890685795,0.04460778801143169,2.4995669914692638
1615025485050475300,12.169475341796876,-7.377914202079176,-0.3240022370189428,2.044101543676108
1615025485060407000,12.179406982421876,-5.624712690156698,-0.37919630097448825,1.7113596814930438
1615025485070339300,12.18933935546875,-3.6357436895072457,-0.1481833132982254,1.237529140447825
1615025485080271400,12.199271240234374,-1.6241829178214071,0.1815185966670513,0.8833822327949106
1615025485090203400,12.209203369140624,-0.19380407774448394,0.4213502660930156,0.7484526610843837
1615025485100135400,12.219135498046874,0.47487961170673365,0.3119721920073032,0.8394961831867694
1615025485110066200,12.229066162109374,0.7362626032054423,-0.06946341232657433,0.9358322587393224
1615025485119998200,12.238998291015625,0.8951590336978436,-0.5152367565363645,1.0972281048320234
1615025485129930200,12.24893017578125,0.8794014925956726,-0.9012310470879077,1.2705473206914961
1615025485139862300,12.2588623046875,0.8114028921246528,-1.1104051279217004,1.3770138912446797
1615025485149794300,12.268794189453125,0.6999614557683468,-1.122856613215804,1.437143511906266
1615025485159726300,12.278726318359375,0.5218166098507121,-1.0498743791133165,1.4837667313933371
1615025485169658000,12.288658203125,0.30962584807686505,-0.8401356501340865,1.4643528597407043
1615025485179590100,12.298590087890625,-0.061149246032908555,-0.5900397763252258,1.3607007620863616
1615025485189522200,12.308522216796876,-1.1480057405848056,-0.352170931404829,1.0236549190990627
1615025485199454200,12.3184541015625,-2.782424732673168,-0.1331780518680811,0.3879993467636406
1615025485209386200,12.32838623046875,-2.412204788228124,0.12100012281835079,-0.23808204927965998
1615025485219318300,12.338318359375,-1.2407554090179502,0.38710312857627865,-0.5358921526826917
1615025485229250300,12.348250244140624,-0.6014169834513217,0.6330331148773432,-0.5566298202849924
1615025485239182300,12.358182373046875,-0.44208091943264005,0.7498696882754564,-0.38729192914664745
1615025485249114400,12.3681142578125,-0.5811493445135653,0.6944640273958445,-0.2550343531243503
1615025485259046400,12.37804638671875,-0.9507295297503471,0.6193325063049793,-0.26243571542203425
1615025485268978400,12.387978515625,-1.6259401367522774,0.7394792271643876,-0.34334333569630976
1615025485278910200,12.39791015625,-2.1884701209917665,1.1631716724693775,-0.25952070475816724
1615025485288842200,12.40784228515625,-2.078626621351391,1.7066396672338247,0.12792539203688502
1615025485298775300,12.417775390625,-1.695652409273386,2.108607187464833,0.7232321489796042
1615025485308707300,12.427707275390626,-1.513323665267229,2.3082430401027203,1.3502633930936454
1615025485318638300,12.437638427734376,-1.5429356903292237,2.320070840540528,1.9319174722589552
1615025485328570400,12.4475703125,-1.701135224598646,2.0009458541691303,2.425865210920572
1615025485338502100,12.457502197265624,-2.008363436949253,1.473545197108388,2.6996418200463057
1615025485348434200,12.46743408203125,-2.554953363126516,0.8591594995558262,2.6324720716148615
1615025485358366200,12.4773662109375,-3.350802127766609,0.4978612588435411,2.1236028042837978
1615025485368298200,12.48729833984375,-4.0848856333673,0.5192974301040172,1.5229906344093382
1615025485378230300,12.497230224609375,-4.438317670749128,0.7023994965702295,0.86411332257092
1615025485388162300,12.507162353515625,-4.396552704948187,0.826059778508544,0.23169132532924414
1615025485398094000,12.517093994140625,-4.2128909587726,0.6033382338374853,-0.27169454215466976
1615025485408026000,12.527026123046875,-4.050262940536439,-0.010703180322051047,-0.6773156164571642
1615025485417958100,12.536958251953125,-3.815011876899004,-0.3772539347350597,-0.8408356150969862
1615025485427890200,12.54689013671875,-3.2705332437872885,0.4082733423769474,-0.7472131824173033
